Time,gyr1,gyr2,gyr3,accx,accy,accz
08.319862,-0.05396353453397751,-0.27406951785087585,0.020762545987963676,0.10813087970018387,-0.08901235461235046,0.9789302349090576
08.335987,-0.05396353453397751,-0.2658228278160095,0.05038950964808464,0.086553193628788,-0.09070093929767609,0.9762495756149292
08.381608,-0.05762872099876404,-0.2713206112384796,0.022289708256721497,0.10061505436897278,-0.055964406579732895,0.9462748765945435
08.433278,-0.10619250684976578,-0.23314154148101807,0.046113453805446625,0.10425174236297607,-0.0989026129245758,0.9852663278579712
08.476706,-0.09019261598587036,-0.17069312930107117,0.06943178176879883,0.029093509539961815,-0.12326643615961075,0.9886780977249146
08.512064,-0.03635796159505844,-0.27449989318847656,0.028198372572660446,0.01575898379087448,-0.10034997016191483,0.9623588919639587
08.555737,-0.030554741621017456,-0.3936186134815216,-0.01425675954669714,0.0858258530497551,-0.054517049342393875,0.968207597732544
08.590979,-0.08553261309862137,-0.36063188314437866,0.04408086836338043,0.09358412027359009,-0.12157785147428513,0.9930647015571594
08.634521,-0.05407305806875229,-0.30107253789901733,0.0007094382308423519,0.0824316069483757,-0.08249925822019577,0.9813672304153442
08.670033,-0.05254589021205902,-0.24640008807182312,0.02086799219250679,0.0778251364827156,-0.09070093929767609,0.9896529316902161
08.713557,-0.058349110186100006,-0.2222709208726883,0.017202800139784813,0.05624745413661003,-0.0981789380311966,0.9706445932388306
08.749009,-0.033323973417282104,-0.24947379529476166,0.017804307863116264,-0.017772166058421135,-0.0771922841668129,0.9718630313873291
08.792540,-0.07150305062532425,-0.40493902564048767,-0.02495625801384449,0.07564312219619751,-0.1054157167673111,0.9896529316902161
08.827930,-0.0788334384560585,-0.4089096486568451,-0.00876832939684391,0.0834013968706131,-0.10396835952997208,0.9908714294433594
08.871391,-0.07150305062532425,-0.34965571761131287,0.020247768610715866,0.06279349327087402,-0.128090962767601,0.9811235070228577
08.906773,-0.033629409968853,-0.34568509459495544,-0.02801058627665043,0.09115966409444809,-0.09045971184968948,0.9813672304153442
08.950277,-0.040348924696445465,-0.2919289469718933,0.01597171276807785,0.029820848256349564,-0.1056569442152977,0.9820983409881592
08.985712,-0.05012276768684387,-0.33530038595199585,0.009252195246517658,0.0843711793422699,-0.112411268055439,0.9920898675918579
09.029123,-0.04462498426437378,-0.293456107378006,0.012306520715355873,0.03394242748618126,-0.10059119760990143,0.9857537150382996
09.064516,-0.030575081706047058,-0.3340786397457123,0.017804307863116264,0.04145825281739235,-0.08973602950572968,0.9662579894065857
09.099854,-0.055009692907333374,-0.38050439953804016,0.021164067089557648,0.06327838450670242,-0.10034997016191483,0.9872159361839294
09.133196,-0.062034644186496735,-0.37073057889938354,0.028494449332356453,0.029578402638435364,-0.12543745338916779,0.9864848256111145
09.191721,-0.07700084149837494,-0.47213420271873474,0.015360847115516663,0.029578402638435364,-0.06971428543329239,0.9781991243362427
09.231503,-0.02599359303712845,-0.5057317614555359,0.003448975272476673,0.09164455533027649,-0.08611764758825302,0.9935520887374878
09.282706,-0.04309782013297081,-0.4235704243183136,0.03765742853283882,0.08825031667947769,-0.13532774150371552,0.9886780977249146
09.318517,0.06869051605463028,-0.412574827671051,-0.009073762223124504,0.12825389206409454,-0.07598615437746048,0.9708882570266724
09.393876,-0.005224174819886684,-0.34476879239082336,0.08194515854120255,0.12825389206409454,-0.10782797634601593,0.9952579140663147
09.434796,-0.012859990820288658,-0.322777658700943,-0.037784427404403687,0.06885464489459991,-0.08756499737501144,0.990384042263031
09.458331,-0.012859990820288658,-0.29376155138015747,0.03552303463220596,0.04776184633374214,-0.08056945353746414,0.9862411618232727
09.516803,-0.007985367439687252,-0.25793716311454773,0.025443756952881813,0.04776184633374214,-0.07695106416940689,0.9818546175956726
09.557744,-0.036390602588653564,-0.37827762961387634,-0.07046208530664444,0.05867191031575203,-0.09335441887378693,0.972594141960144
09.581221,-0.036390602588653564,-0.384386271238327,0.0019254456274211407,0.10425174236297607,-0.09986752271652222,0.987459659576416
09.639842,-0.040361225605010986,-0.25152307748794556,0.02147313393652439,0.02642660401761532,-0.15631437301635742,0.9387202858924866
09.698574,0.06684562563896179,-0.2851206660270691,0.08042163401842117,0.0814618244767189,-0.1481126993894577,0.9387202858924866
09.704670,0.12976475059986115,-0.21639832854270935,0.10577253997325897,0.05648989602923393,-0.06295996159315109,0.9842915534973145
09.763669,0.21070438623428345,-0.2084570825099945,0.09324980527162552,0.07030931115150452,-0.0031359365675598383,0.9635773301124573
09.822471,0.16977642476558685,-0.2240341454744339,-0.06557516008615494,0.05697479099035263,-0.0031359365675598383,0.9760059118270874
09.846099,0.012478617951273918,-0.23258624970912933,0.04621317610144615,0.008485606871545315,-0.06295996159315109,0.9969637989997864
09.887479,-0.06296323984861374,-0.3645331561565399,-0.05121983215212822,0.081219382584095,0.00048558515845797956,0.9509051442146301
09.946323,-0.08098376542329788,-0.38957861065864563,-0.0035723415203392506,0.081219382584095,-0.03377162665128708,1.0598376989364624
09.987500,-0.16986465454101562,-0.32665950059890747,-0.04816550388932228,0.05600500851869583,-0.10469203442335129,1.0098797082901
10.011256,-0.14359745383262634,-0.32788124680519104,0.0037580414209514856,0.05139853432774544,-0.02315768599510193,0.987459659576416
10.070236,-0.10297491401433945,-0.34254199266433716,0.0037580414209514856,0.053580544888973236,-0.13629263639450073,1.0086612701416016
10.111661,-0.15214955806732178,-0.28664782643318176,0.012310154736042023,0.036851778626441956,-0.13629263639450073,1.0186527967453003
10.135301,-0.07792943716049194,-0.3150530755519867,0.012004721909761429,0.02375970035791397,-0.1054157167673111,0.9996444582939148
10.176538,-0.06754472851753235,-0.3150530755519867,-0.00876469537615776,0.036366891115903854,-0.06609589606523514,0.9906277060508728
10.217882,-0.05532742291688919,-0.34712350368499756,-0.009375561028718948,0.036366891115903854,-0.11892437189817429,0.9877033233642578
10.259138,-0.10694553703069687,-0.36331140995025635,0.003147176234051585,0.047034505754709244,-0.09649036079645157,0.9937956929206848
10.282776,-0.10694553703069687,-0.36880919337272644,-0.006321235094219446,0.03321509063243866,-0.112411268055439,0.9925772547721863
10.324126,-0.1103052943944931,-0.38927319645881653,-0.006321235094219446,0.0870380848646164,-0.08201680332422256,0.9774680733680725
10.383178,-0.003403877839446068,-0.3092498481273651,-0.04022425785660744,0.05139853432774544,-0.041249629110097885,0.9867285490036011
10.406824,-0.05135679990053177,-0.34803977608680725,-0.033810172230005264,0.04776184633374214,-0.08756499737501144,1.059106469154358
10.448253,-0.019286373630166054,-0.34803977608680725,0.002536310814321041,0.036124441772699356,-0.0911833867430687,0.9886780977249146
10.507052,0.022863328456878662,-0.34865066409111023,-0.05916107818484306,0.05018630623817444,-0.0564468577504158,0.9867285490036011
10.548263,-0.036390602588653564,-0.3153584897518158,0.00436890684068203,0.0766129121184349,-0.06730202585458755,0.9940394163131714
10.572090,-0.036390602588653564,-0.2912293076515198,-0.029839549213647842,0.04218558967113495,-0.07888086885213852,1.0510644912719727
10.613270,-0.054716557264328,-0.29153475165367126,-0.029839549213647842,0.04048847034573555,-0.10372713953256607,0.9833167791366577
10.671991,-0.019286373630166054,-0.2988651394844055,-0.03350473940372467,0.036851778626441956,-0.06199505552649498,0.9833167791366577
10.678096,-0.05532742291688919,-0.30711182951927185,0.01902967318892479,0.013334525749087334,-0.11144636571407318,0.9998881816864014
10.736877,-0.09900429099798203,-0.3245214819908142,0.01902967318892479,0.02472948282957077,-0.08515273779630661,0.9362832903862
10.778009,-0.040972091257572174,-0.3614788353443146,-0.0026560439728200436,0.053095657378435135,-0.08515273779630661,0.9998881816864014
10.801701,-0.03211454302072525,-0.3257431983947754,0.02055683545768261,0.007273377384990454,-0.07863964140415192,0.9852663278579712
10.843320,-0.030892813578248024,-0.3639222979545593,-0.004183207172900438,0.05867191031575203,-0.10855165123939514,0.999400794506073
10.902694,-0.07243165373802185,-0.3208562731742859,0.030941544100642204,0.014546754769980907,-0.08153434842824936,0.9881907105445862
10.961824,-0.016537480056285858,-0.36697661876678467,-0.012735320255160332,0.047034505754709244,-0.05837666615843773,0.9886780977249146
10.985677,-0.05349482595920563,-0.3055846393108368,-0.0032669086940586567,0.02400214597582817,-0.08153434842824936,0.9898965954780579
11.027054,-0.0550219900906086,-0.3055846393108368,-0.009986426681280136,0.028851065784692764,-0.11217004060745239,0.9996444582939148
11.063862,-0.014704884961247444,-0.29794883728027344,0.012004721909761429,0.061338815838098526,-0.0007236776873469353,0.9833167791366577
11.115254,-0.05196766555309296,-0.2936727702617645,0.033995870500802994,-0.02196837216615677,-0.18477903306484222,0.9370144009590149
11.171655,-0.06265780329704285,-0.3541484475135803,-0.014567917212843895,0.06012658774852753,-0.09721403568983078,0.9370144009590149
11.177679,-0.054716557264328,-0.3156639337539673,-0.06618602573871613,0.027153942734003067,-0.08708254992961884,0.9372580647468567
11.236395,-0.049524202942848206,-0.32818666100502014,-0.06618602573871613,0.020123012363910675,-0.08660009503364563,0.9986696839332581
11.295395,-0.1005314514040947,-0.3498723804950714,-0.01731681078672409,0.06715752184391022,-0.0921482965350151,1.0074427127838135
11.319071,-0.0702936202287674,-0.32665950059890747,-0.04480574652552605,0.002424459205940366,-0.08032822608947754,0.9962327480316162
11.360487,-0.03761233389377594,-0.32665950059890747,-0.08390111476182938,0.035639550536870956,-0.09769649058580399,0.9835605025291443
11.401685,-0.11671938002109528,-0.40332308411598206,-0.058550212532281876,0.035639550536870956,-0.13170933723449707,1.0030561685562134
11.442846,-0.054716557264328,-0.33307358622550964,-0.024036327376961708,0.008000715635716915,-0.08708254992961884,0.9991570711135864
11.466598,-0.054716557264328,-0.3520103991031647,0.009255828335881233,0.03466976806521416,-0.11530598253011703,0.9991570711135864
11.525290,-0.049524202942848206,-0.36850377917289734,0.030941544100642204,0.03466976806521416,-0.08129312843084335,0.9947705268859863
11.566571,-0.03608516603708267,-0.37919390201568604,0.058735914528369904,0.029578402638435364,-0.09914384037256241,0.9947705268859863
11.572987,-0.047080740332603455,-0.351094126701355,0.002536310814321041,0.07467333972454071,-0.0984201654791832,0.987459659576416
11.614459,-0.03822319582104683,-0.351094126701355,-0.0032669086940586567,0.03951868414878845,-0.09431932866573334,0.9945268034934998
11.673277,-0.044942714273929596,-0.3098607063293457,9.285006672143936e-05,0.05261076241731644,-0.08780623227357864,0.9918461441993713
11.714487,-0.06204694136977196,-0.313525915145874,0.03430130332708359,0.05891435965895653,-0.11699455976486206,1.0483838319778442
11.738084,-0.06204694136977196,-0.26740556955337524,0.0013145804405212402,0.011394958011806011,-0.06513099372386932,0.9850226640701294
11.797418,-0.015010317787528038,-0.28664782643318176,-0.03869709372520447,0.01624387688934803,-0.09649036079645157,0.9367707371711731
11.856575,-0.023867864161729813,-0.31291502714157104,-0.03991882503032684,0.046549614518880844,-0.08660009503364563,0.9367707371711731
11.862575,-0.04219382256269455,-0.30650094151496887,-0.000823447946459055,0.060611478984355927,-0.07646860927343369,0.9869722723960876
11.903890,-0.04616444557905197,-0.30650094151496887,0.0013145804405212402,-0.01900634355843067,-0.08925358206033707,1.0561821460723877
11.962426,-0.024784160777926445,-0.37827762961387634,-0.015484213829040527,-0.049613963812589645,-0.08925358206033707,0.9930647015571594
11.985899,-0.05227309837937355,-0.4048502445220947,-0.1382681280374527,0.0821891650557518,-0.10469203442335129,0.984535276889801
12.027039,-0.06418497115373611,-0.4048502445220947,0.0034526088275015354,0.00872805342078209,-0.09914384037256241,0.9996444582939148
12.068139,-0.05288396403193474,-0.33765506744384766,0.057208750396966934,0.00872805342078209,-0.09986752271652222,0.9979385733604431
12.109503,-0.059603478759527206,-0.4198164641857147,-0.11169548332691193,-0.009379754774272442,-0.06464854627847672,0.9923335909843445
12.134056,-0.10755640268325806,-0.32788124680519104,-0.09153693169355392,0.044610049575567245,-0.10638061910867691,0.9879470467567444
12.192367,-0.07792943716049194,-0.3959926962852478,-0.09153693169355392,0.0016971214208751917,-0.1329154670238495,0.9930647015571594
12.251086,-0.07640227675437927,-0.40301766991615295,0.019640536978840828,0.05867191031575203,-0.13508650660514832,0.9930647015571594
12.257114,-0.028754785656929016,-0.36331140995025635,0.10821600258350372,0.06424816697835922,-0.08804745227098465,0.9969637989997864
12.298083,-0.028754785656929016,-0.36331140995025635,0.06789889186620712,0.05794457346200943,-0.11651210486888885,0.9972074627876282
12.356692,-0.06082521006464958,-0.35292670130729675,0.08744658529758453,0.06982442736625671,-0.11651210486888885,0.9969637989997864
12.380194,-0.048607904464006424,-0.2933673560619354,0.041020821779966354,0.06012658774852753,-0.11144636571407318,0.9989133477210999
12.421169,-0.029671084135770798,-0.2933673560619354,0.012310154736042023,0.009455390274524689,-0.12881462275981903,1.0600812435150146
12.479786,-0.05227309837937355,-0.3709472417831421,-0.13093774020671844,0.047034505754709244,-0.12881462275981903,0.9996444582939148
12.503238,-0.0015712818130850792,-0.4210381805896759,-0.23661743104457855,-0.0014810138382017612,-0.06802570074796677,0.9889218211174011
12.544171,-0.021729834377765656,-0.4210381805896759,-0.2760182321071625,0.0858258530497551,-0.06681957840919495,0.9979385733604431
12.603015,-0.05899261683225632,-0.3770558834075928,-0.0927586629986763,0.045822277665138245,-0.06681957840919495,0.9984260201454163
12.626482,-0.055632855743169785,-0.32818666100502014,0.03155241161584854,0.07370355725288391,-0.12977953255176544,0.9918461441993713
12.649980,-0.055632855743169785,-0.30344662070274353,0.18946108222007751,0.03273019939661026,-0.12519624829292297,1.0588628053665161
12.708461,-0.015621182508766651,-0.28634241223335266,0.2505475878715515,0.03273019939661026,-0.11747701466083527,0.9918461441993713
12.749620,-0.012261424213647842,-0.3541484475135803,0.05293269455432892,0.0029093509074300528,-0.10179732739925385,1.000375509262085
12.773120,-0.012261424213647842,-0.3917166590690613,-0.007542965468019247,0.07006686925888062,-0.10034997016191483,0.9911150336265564
12.831685,-0.04891333729028702,-0.384386271238327,-0.03289387375116348,0.07006686925888062,-0.09721403568983078,0.9991570711135864
12.872882,-0.08220549672842026,-0.503810465335846,-0.2579977214336395,0.027638833969831467,-0.10999900847673416,0.9976949095726013
12.896409,-0.08831414580345154,-0.4576900899410248,-0.22165122628211975,0.04824673756957054,-0.09431932866573334,0.9935520887374878
12.954997,-0.07304251194000244,-0.4311174750328064,-0.22165122628211975,0.10546397417783737,-0.11892437189817429,0.9962327480316162
13.013409,-0.10205861181020737,-0.3596462309360504,0.0892791822552681,0.09382656961679459,-0.14859513938426971,0.9962327480316162
13.019417,-0.028449352830648422,-0.29153475165367126,0.28994840383529663,0.06909708678722382,-0.10638061910867691,0.9898965954780579
13.077987,-0.0009604170918464661,-0.2945890724658966,0.28994840383529663,0.044610049575567245,-0.11120513826608658,0.9991570711135864
13.136456,0.005759101361036301,-0.2884804308414459,0.15219829976558685,0.07588557153940201,-0.11361739784479141,0.9991570711135864
13.142501,-0.0037093106657266617,-0.4411967396736145,-0.3597067892551422,0.029335955157876015,-0.0776747390627861,0.9898965954780579
13.201016,-0.04830247163772583,-0.4622716009616852,-0.3597067892551422,0.09600858390331268,-0.112652488052845,0.9869722723960876
13.259530,-0.06937732547521591,-0.44913798570632935,-0.28151601552963257,0.044610049575567245,-0.09335441887378693,0.9869722723960876
13.265537,-0.09442280232906342,-0.44913798570632935,0.05293269455432892,0.13552726805210114,-0.11385862529277802,0.9828293919563293
13.324104,-0.0904521718621254,-0.40821000933647156,0.05293269455432892,0.12025317549705505,-0.10927533358335495,0.9991570711135864
13.365396,-0.04891333729028702,-0.29153475165367126,0.2206152081489563,0.0850985199213028,-0.10879287868738174,1.0013504028320312
13.407783,-0.03700146824121475,-0.29184019565582275,0.2102304995059967,-0.018512673676013947,-0.1478714793920517,0.9806361198425293
13.431690,0.005759101361036301,-0.26771101355552673,0.09691499173641205,0.0821891650557518,-0.09407810121774673,0.9894092082977295
13.490538,0.012173186987638474,-0.26160234212875366,0.09691499173641205,0.05770213156938553,-0.11699455976486206,1.0549635887145996
13.531980,-0.026922188699245453,-0.26282408833503723,0.16655363142490387,0.07273378223180771,-0.11699455976486206,0.9967200756072998
13.555575,-0.01592661440372467,-0.3492615222930908,0.06240110471844673,0.14158840477466583,-0.09263074398040771,0.9920898675918579
13.596782,-0.02753305435180664,-0.3492615222930908,0.019335106015205383,0.04315537214279175,-0.12133662402629852,1.0549635887145996
13.639011,-0.035474300384521484,-0.3901894986629486,0.11524095386266708,0.04727695509791374,-0.13798122107982635,0.982342004776001
13.681774,-0.01317772176116705,-0.4106534719467163,-0.3493220806121826,0.027638833969831467,-0.11554720252752304,0.9852663278579712
13.723633,-0.044942714273929596,-0.28756412863731384,-0.10650312900543213,0.07346111536026001,-0.10493326187133789,0.9872159361839294
13.747761,-0.0599089115858078,-0.288785845041275,0.06331740319728851,0.07297622412443161,-0.11916559189558029,1.0530141592025757
13.789577,-0.05929804593324661,-0.288785845041275,0.12776368856430054,0.054550331085920334,-0.10396835952997208,0.9935520887374878
13.831598,-0.029671084135770798,-0.2188417911529541,0.18671219050884247,0.054550331085920334,-0.13002075254917145,0.9964764714241028
13.873226,-0.01592661440372467,-0.3159693479537964,0.29911139607429504,0.04291292652487755,-0.09431932866573334,0.9964764714241028
13.879432,-0.03669603168964386,-0.24633072316646576,0.15891781449317932,0.04921652376651764,-0.10686306655406952,1.0032999515533447
13.921486,-0.047997042536735535,-0.42959028482437134,0.058735914528369904,0.12485965341329575,-0.055240727961063385,0.9925772547721863
13.981767,-0.01012339536100626,-0.3749178647994995,-0.05916107818484306,0.04921652376651764,-0.11868314445018768,0.9925772547721863
14.023876,-0.04372098296880722,-0.3761395812034607,-0.09092606604099274,0.09746325761079788,-0.08780623227357864,0.9955016374588013
14.051488,-0.03669603168964386,-0.37308526039123535,-0.09092606604099274,0.09746325761079788,-0.1054157167673111,0.9857537150382996
14.088258,-0.04005579277873039,-0.35262128710746765,-0.36337196826934814,0.05794457346200943,-0.09504300355911255,0.9686949253082275
14.124671,-0.09656082838773727,-0.25213393568992615,-0.0023506111465394497,0.05964169651269913,-0.1268848180770874,0.9984260201454163
14.197738,-0.044026415795087814,-0.255493700504303,0.3073580861091614,0.035881996154785156,-0.128090962767601,0.9984260201454163
14.203887,-0.024784160777926445,-0.31230416893959045,0.11188119649887085,0.03466976806521416,-0.1194068193435669,0.9991570711135864
14.245444,-0.008596232160925865,-0.31230416893959045,0.13784296810626984,0.053822994232177734,-0.09480177611112595,0.9918461441993713
14.287374,0.019198134541511536,-0.3437637388706207,-0.029839549213647842,0.053822994232177734,-0.10059119760990143,0.9906277060508728
14.329242,-0.032419975847005844,-0.3856079876422882,-0.01731681078672409,0.0824316069483757,-0.09263074398040771,0.9906277060508728
14.335283,-0.031198246404528618,-0.303752064704895,-0.032283008098602295,0.0853409618139267,-0.10734552890062332,0.9991570711135864
14.377497,-0.026311323046684265,-0.303752064704895,-0.008153831586241722,0.06473305821418762,-0.13026198744773865,1.0515519380569458
14.419369,-0.02814392000436783,-0.27779027819633484,0.1650264710187912,0.06473305821418762,-0.12254276126623154,1.0598376989364624
14.461244,0.043021880090236664,-0.2704598903656006,0.09569326043128967,0.05988414213061333,-0.0704379603266716,0.9894092082977295
14.485239,-0.0009604170918464661,-0.43997499346733093,0.0636228397488594,-0.004689877387136221,-0.1201304942369461,0.9918461441993713
14.509451,-0.0009604170918464661,-0.43783697485923767,-0.13215947151184082,0.07273378223180771,-0.08852990716695786,0.9769806265830994
14.570177,-0.07334794849157333,-0.4112643301486969,-0.06435342878103256,0.030305739492177963,-0.09311319142580032,1.0093923807144165
14.612289,-0.08617611974477768,-0.4057665467262268,-0.17186571657657623,0.030305739492177963,-0.09045971184968948,0.950417697429657
14.654149,-0.07151535153388977,-0.4259251058101654,-0.0674077570438385,0.047034505754709244,-0.13170933723449707,0.950417697429657
14.660183,-0.13199101388454437,0.684627890586853,0.15647435188293457,0.3226954936981201,0.1347498744726181,1.0900559425354004
14.702482,-0.19979704916477203,0.4082113802433014,-0.018233107402920723,0.019638117402791977,-0.08515273779630661,0.9855100512504578
14.786275,0.0363023616373539,-0.19776692986488342,0.04010452330112457,-0.15994949638843536,-0.08515273779630661,0.9740563035011292
14.810234,-0.03822319582104683,-0.45830097794532776,-0.0044886390678584576,-0.023943057283759117,-0.06923183053731918,1.0415602922439575
14.855081,-0.12404976040124893,-0.5813903212547302,-0.012735320255160332,0.008000715635716915,-0.1341215968132019,0.9923335909843445
14.883958,-0.08190006017684937,-0.5673404335975647,-0.05427415668964386,0.06255104392766953,-0.1341215968132019,0.9923335909843445
14.888149,-0.047080740332603455,-0.522136390209198,-0.045416612178087234,0.04776184633374214,-0.10903409868478775,0.9920898675918579
14.904560,-0.047080740332603455,-0.4717400074005127,-0.016095079481601715,0.029820848256349564,-0.1054157167673111,0.9940394163131714
14.921048,-0.040972091257572174,-0.4717400074005127,-0.016095079481601715,0.03491221368312836,-0.11192881315946579,0.9937956929206848
14.937586,-0.04830247163772583,-0.43875327706336975,-0.023120030760765076,0.03491221368312836,-0.11578842997550964,0.9974511861801147
14.954393,-0.05685458704829216,-0.4115697741508484,-0.026785220950841904,0.05527766793966293,-0.13942857086658478,0.9357959032058716
14.995292,0.06531846523284912,-0.34773436188697815,-0.1132226511836052,-0.01999368704855442,-0.06271872669458389,0.9784428477287292
15.019068,0.014311213046312332,-0.4298957288265228,0.044991444796323776,0.05867191031575203,-0.112411268055439,0.9972074627876282
15.078110,-0.07182078063488007,-0.3663657307624817,0.044991444796323776,0.02375970035791397,-0.1343628168106079,0.999400794506073
15.119381,-0.03425257280468941,-0.36819833517074585,0.026360055431723595,-0.007898740470409393,-0.1343628168106079,0.988434374332428
15.142976,-0.019286373630166054,-0.4155403971672058,0.08011619746685028,0.04170069843530655,-0.11217004060745239,1.0001319646835327
15.184447,-0.0397503599524498,-0.3865242898464203,0.01292102038860321,0.026669051498174667,-0.0844290629029274,0.984535276889801
15.243247,0.0017884764820337296,-0.3898840546607971,-0.0044886390678584576,0.026669051498174667,-0.0709204152226448,0.9937956929206848
15.284618,-0.04219382256269455,-0.36361685395240784,-0.06649145483970642,0.038064006716012955,-0.11385862529277802,0.9362832903862
15.308255,-0.021729834377765656,-0.35262128710746765,0.010477559641003609,0.037336669862270355,-0.09600790590047836,0.9360396265983582
15.367098,-0.03516887128353119,-0.3211617171764374,0.010477559641003609,0.030548185110092163,-0.0919070690870285,1.0020813941955566
15.426033,-0.04066665843129158,-0.32788124680519104,-0.019149405881762505,0.03515465557575226,-0.09528422355651855,1.0059806108474731
15.449932,-0.016232047230005264,-0.3144421875476837,0.0022308784537017345,0.01672876812517643,-0.08056945353746414,0.9847790002822876
15.491307,-0.008901664987206459,-0.3144421875476837,-0.0023506111465394497,0.023274807259440422,-0.10227978229522705,0.9889218211174011
15.532686,-0.054105691611766815,-0.40240678191185,0.002841743640601635,0.023274807259440422,-0.09383687376976013,0.9923335909843445
15.573878,-0.13748879730701447,-0.4805975556373596,-0.025563489645719528,0.00048489184700883925,-0.10782797634601593,0.9940394163131714
15.597516,-0.13748879730701447,-0.5053375959396362,-0.1226910650730133,0.06036903336644173,-0.0916658416390419,0.9813672304153442
15.639104,-0.1103052943944931,-0.5502362251281738,-0.1226910650730133,0.11613159626722336,-0.12374889105558395,1.0162159204483032
15.680633,-0.016232047230005264,-0.3801102042198181,-0.012124454602599144,0.10958555340766907,-0.12374889105558395,0.9811235070228577
15.704300,0.003315640613436699,-0.4469999670982361,-0.09520212560892105,0.04073091223835945,-0.04510924220085144,0.9635773301124573
15.746073,-0.03364170715212822,-0.4320337474346161,0.001620013266801834,0.04921652376651764,-0.14328818023204803,1.0159721374511719
15.805077,-0.09900429099798203,-0.3462072014808655,-0.010597292333841324,0.04921652376651764,-0.14883637428283691,0.9372580647468567
15.846248,-0.02295156568288803,-0.37766674160957336,-0.020676568150520325,0.054792776703834534,-0.13966980576515198,0.9372580647468567
15.852492,-4.411861300468445e-05,-0.331546425819397,0.042547982186079025,0.0766129121184349,-0.1266435980796814,0.9370144009590149
15.911364,-0.05349482595920563,-0.288785845041275,-0.0038777743466198444,0.05648989602923393,-0.14352941513061523,1.0103671550750732
15.970435,-0.05227309837937355,-0.27687397599220276,0.05323812738060951,0.06424816697835922,-0.14352941513061523,0.9896529316902161
15.994042,0.02958284690976143,-0.3853025734424591,-0.04327858239412308,0.03321509063243866,-0.049692537635564804,0.9665017127990723
16.017661,0.02958284690976143,-0.34895607829093933,0.015975346788764,0.03854890167713165,-0.07574492692947388,0.9796612858772278
16.076586,-0.034863438457250595,-0.39751988649368286,-0.02037113532423973,0.03854890167713165,-0.06754325330257416,1.0025688409805298
16.117764,-0.06265780329704285,-0.44333475828170776,-0.08054135739803314,0.0834013968706131,-0.11699455976486206,0.9959890246391296
16.141437,-0.054105691611766815,-0.3849971294403076,0.06606629490852356,0.04630717262625694,-0.1411171555519104,1.0162159204483032
16.200494,-0.10816726833581924,-0.37369611859321594,0.06606629490852356,0.06352083384990692,-0.16789323091506958,0.9791739583015442
16.259227,-0.04005579277873039,-0.53252112865448,-0.05824478343129158,0.009697836823761463,-0.11820068955421448,0.9959890246391296
16.282873,-0.0654066950082779,-0.4118752181529999,0.08561398833990097,0.1600143015384674,-0.10710430145263672,0.9694260358810425
16.324205,-0.05074593424797058,-0.4118752181529999,-0.11230634897947311,0.02497193031013012,-0.09287197142839432,0.9972074627876282
16.365656,-0.02997651696205139,-0.4659367799758911,-0.1993546485900879,0.02497193031013012,-0.05934157222509384,1.0588628053665161
16.406845,-0.13840509951114655,-0.21487116813659668,0.08347596228122711,0.1551653891801834,-0.19298072159290314,1.0130478143692017
16.430634,-0.13840509951114655,-0.31199872493743896,-0.12085846066474915,0.011152512393891811,-0.04872762784361839,0.9779554605484009
16.471957,0.0133949164301157,-0.34193113446235657,-0.12085846066474915,0.09237189590930939,-0.10252100229263306,1.0542325973510742
16.530712,-0.06265780329704285,-0.2787065804004669,-0.0038777743466198444,0.11443447321653366,-0.1346040517091751,1.0542325973510742
16.536966,-0.06754472851753235,-0.37003093957901,0.14334075152873993,0.06327838450670242,-0.03956104815006256,0.9833167791366577
16.578167,-0.027227621525526047,-0.37003093957901,0.1042453795671463,0.06473305821418762,-0.084670290350914,0.9764932990074158
16.637043,-0.05074593424797058,-0.4072937071323395,-0.09367496520280838,0.019638117402791977,-0.084670290350914,0.9855100512504578
16.660788,-0.08373265713453293,-0.3248268961906433,0.22305867075920105,0.1597718596458435,-0.13846366107463837,1.0600812435150146
16.684503,-0.08373265713453293,-0.16936171054840088,0.05537615343928337,0.01721366122364998,-0.07309144735336304,0.9677202105522156
16.743411,-0.045553579926490784,-0.2753468155860901,0.10729970037937164,0.01721366122364998,-0.1753712296485901,1.0025688409805298
16.784621,-0.10419664531946182,-0.3187182545661926,0.017197076231241226,0.10861577093601227,-0.14521799981594086,1.0025688409805298
16.790661,-0.07090448588132858,-0.2747359573841095,-0.06526973098516464,0.05139853432774544,-0.1413583755493164,0.9940394163131714
16.849648,-0.004320175386965275,-0.3153584897518158,-0.06526973098516464,0.0843711793422699,-0.0919070690870285,0.9877033233642578
16.890871,-0.016842912882566452,-0.28298264741897583,0.06209567189216614,0.10376685857772827,-0.0919070690870285,0.988434374332428
16.914438,-0.040361225605010986,-0.3349061906337738,0.07981076836585999,0.05600500851869583,-0.0706791877746582,0.9781991243362427
16.955773,-0.01898094080388546,-0.3349061906337738,0.12593108415603638,0.09843304753303528,-0.13870488107204437,1.059106469154358
16.997032,-0.10419664531946182,-0.274430513381958,0.08958461135625839,0.09843304753303528,-0.14280572533607483,0.9969637989997864
17.038183,-0.05685458704829216,-0.3086389899253845,0.08133792877197266,0.04170069843530655,-0.12447255849838257,0.9955016374588013
17.061927,-0.05685458704829216,-0.3590353727340698,-0.0371699295938015,0.06352083384990692,-0.11434107273817062,0.9799050092697144
17.103222,-0.064490407705307,-0.3956872820854187,-0.0371699295938015,0.09746325761079788,-0.1278497278690338,0.999400794506073
17.161929,-0.05624372139573097,-0.30314120650291443,-0.009680993854999542,0.08873520791530609,-0.1336391568183899,0.999400794506073
17.168127,-0.039444927126169205,-0.239305779337883,0.9133363962173462,0.30063295364379883,-0.15366089344024658,0.981610894203186
17.226852,0.19695992767810822,0.15806207060813904,0.019335106015205383,-0.0757785439491272,-0.12977953255176544,1.0279133319854736
17.286077,-0.021729834377765656,-0.12996089458465576,-0.1077248603105545,-0.16784822940826416,-0.12977953255176544,1.030593991279602
17.309706,-0.16833749413490295,-0.7466294169425964,-0.41926613450050354,-0.033075977116823196,-0.14328818023204803,0.9411572217941284
17.333344,-0.16833749413490295,-0.9292780756950378,-0.46844080090522766,0.09164455533027649,-0.04366188496351242,0.9535858035087585
17.392374,-0.013788586482405663,-0.845894992351532,-0.16178643703460693,0.09164455533027649,-0.10806920379400253,1.055207371711731
17.433546,-0.06387953460216522,-0.49953436851501465,0.033385004848241806,0.21262507140636444,-0.14039346575737,1.055207371711731
17.439590,-0.040972091257572174,-0.15011945366859436,0.08561398833990097,0.1607416421175003,-0.10782797634601593,0.9933083653450012
17.498513,0.022557895630598068,-0.022448616102337837,0.08561398833990097,0.05600500851869583,-0.10951656103134155,0.9923335909843445
17.539702,-0.017759211361408234,-0.004733523819595575,0.11188119649887085,-0.006417726632207632,-0.10951656103134155,0.984535276889801
17.563439,-0.042499251663684845,-0.47326716780662537,-0.07534900307655334,0.03127552196383476,-0.128090962767601,0.9772243499755859
17.604873,-0.052578531205654144,-0.47326716780662537,-0.1233019232749939,0.09334167838096619,-0.10131487250328064,1.057644248008728
17.646093,-0.036390602588653564,-0.522747278213501,-0.11872043460607529,0.09334167838096619,-0.09673158079385757,1.0052495002746582
17.687323,-0.06601756811141968,-0.3291029632091522,-0.07015664875507355,0.12122295796871185,-0.1473890244960785,0.9365270137786865
17.711108,-0.06601756811141968,-0.32696494460105896,-0.04755463823676109,0.07564312219619751,-0.09697280824184418,0.9857537150382996
17.752306,-0.03730689734220505,-0.32665950059890747,-0.04755463823676109,0.0775826945900917,-0.14280572533607483,1.0013504028320312
17.811046,-0.040361225605010986,-0.31260961294174194,0.025443756952881813,0.0855834111571312,-0.15004250407218933,1.0013504028320312
17.817217,-0.01012339536100626,-0.45524662733078003,-0.04663834348320961,0.04073091223835945,-0.10131487250328064,0.9855100512504578
17.858375,-0.011650558561086655,-0.45524662733078003,-0.07046208530664444,0.13261792063713074,-0.1196480467915535,0.991358757019043
17.917140,-0.06632299721240997,-0.3239106237888336,0.07584014534950256,0.12655676901340485,-0.1196480467915535,1.0001319646835327
17.940870,-0.00126584991812706,-0.24083293974399567,0.025443756952881813,0.08897764980792999,-0.112652488052845,0.982342004776001
17.982058,0.006369967013597488,-0.3642277121543884,-0.046332910656929016,0.09091722220182419,-0.09431932866573334,0.9855100512504578
18.041152,-0.020813537761569023,-0.38285911083221436,-0.022814597934484482,0.09091722220182419,-0.1276085078716278,0.9996444582939148
18.082641,-0.039444927126169205,-0.3086389899253845,0.0538489893078804,0.09964527189731598,-0.13050320744514465,0.9996444582939148
18.088711,-0.028754785656929016,-0.364838570356369,-0.000823447946459055,0.07273378223180771,-0.11120513826608658,0.9855100512504578
18.148042,-0.05746545270085335,-0.4112643301486969,-0.011208157986402512,0.11104022711515427,-0.10179732739925385,0.9859974384307861
18.206962,-0.04127752035856247,-0.355675607919693,-0.06801862269639969,0.086068294942379,-0.10179732739925385,0.9867285490036011
18.230599,-0.09625539183616638,-0.3642277121543884,0.08255966007709503,0.10231217741966248,-0.11530598253011703,1.0583754777908325
18.254367,-0.09625539183616638,-0.25121766328811646,0.10393994301557541,0.05891435965895653,-0.13870488107204437,1.0035436153411865
18.313176,0.0008721798658370972,-0.3291029632091522,0.058125048875808716,0.05891435965895653,-0.11578842997550964,0.9747873544692993
18.354338,0.02805568277835846,-0.3947709798812866,-0.005099504720419645,0.07612801343202591,-0.08804745227098465,0.9747873544692993
18.360530,-0.006458204239606857,-0.3758341670036316,0.04438057914376259,0.11297979205846786,-0.12061294168233871,1.0074427127838135
18.419347,-0.007985367439687252,-0.3205508589744568,0.04438057914376259,0.10085750371217728,-0.1058981716632843,0.9908714294433594
18.460674,0.06470759958028793,-0.27259793877601624,0.04468601197004318,0.10619131475687027,-0.1058981716632843,0.9969637989997864
18.484505,0.03294260427355766,-0.2683218717575073,0.03766106069087982,0.07176399230957031,-0.09407810121774673,0.9869722723960876
18.525776,0.016143810003995895,-0.2683218717575073,0.04346428066492081,0.0841287299990654,-0.10903409868478775,0.9974511861801147
18.567034,-0.0003495514392852783,-0.28756412863731384,0.0538489893078804,0.0841287299990654,-0.08901235461235046,1.057157039642334
18.608473,-0.04280468821525574,-0.3865242898464203,0.03918822482228279,0.05261076241731644,-0.10324468463659286,0.9996444582939148
18.632099,-0.045553579926490784,-0.4060719907283783,0.01444818265736103,0.09188699722290039,-0.10203855484724045,0.9918461441993713
18.674975,-0.036390602588653564,-0.3904949128627777,0.03552303463220596,0.09697836637496948,-0.11795946210622787,1.0001319646835327
18.717605,-0.025395026430487633,-0.3645331561565399,0.03552303463220596,0.11540426313877106,-0.0919070690870285,0.9901403188705444
18.759317,-0.004320175386965275,-0.29764339327812195,0.03674476593732834,0.10085750371217728,-0.0919070690870285,0.9991570711135864
18.783232,-0.014094019308686256,-0.2787065804004669,0.034912168979644775,0.0831589475274086,-0.10324468463659286,0.999400794506073
18.807574,-0.0009604170918464661,-0.293978214263916,0.030330678448081017,0.06255104392766953,-0.08418784290552139,0.9881907105445862
18.866662,-0.016842912882566452,-0.32696494460105896,0.030330678448081017,0.07346111536026001,-0.11506475508213043,0.9911150336265564
18.908584,-0.023256998509168625,-0.3446800410747528,0.02452745847404003,0.0841287299990654,-0.11506475508213043,0.9998881816864014
18.932304,-0.007985367439687252,-0.3193291127681732,0.021778566762804985,0.07491578906774521,-0.08611764758825302,0.9996444582939148
18.956027,-0.007985367439687252,-0.32268887758255005,0.00436890684068203,0.0826740637421608,-0.08225803077220917,0.9777117371559143
18.997791,-0.012872288934886456,-0.3495669364929199,0.00436890684068203,0.09746325761079788,-0.09287197142839432,0.9964764714241028
19.039832,-0.033336274325847626,-0.3196345567703247,0.027887217700481415,0.0778251364827156,-0.09287197142839432,1.059106469154358
19.064722,-0.02600589208304882,-0.41737300157546997,-0.06801862269639969,0.03854890167713165,-0.08949480205774307,0.999400794506073
19.088447,-0.04524814710021019,-0.4515814483165741,0.015364481136202812,0.078310027718544,-0.0774335116147995,0.9964764714241028
19.130635,-0.05288396403193474,-0.4515814483165741,-0.009375561028718948,0.10255462676286697,-0.08732376992702484,0.9981822967529297
19.172278,-0.09686625748872757,-0.4906768202781677,-0.03991882503032684,0.10255462676286697,-0.12471379339694977,1.0135352611541748
19.214417,-0.04188838601112366,-0.3660603165626526,-0.04877636954188347,0.12170784920454025,-0.10324468463659286,1.0135352611541748
19.220501,-0.04188838601112366,-0.38316452503204346,-0.06465886533260345,0.06861218810081482,-0.06561344116926193,0.9925772547721863
19.262226,-0.05838175117969513,-0.38316452503204346,-0.01884397305548191,0.10594886541366577,-0.09335441887378693,0.9867285490036011
19.304126,-0.13809967041015625,-0.4057665467262268,-0.01487334817647934,0.10594886541366577,-0.1264023780822754,0.9857537150382996
19.345543,-0.07842149585485458,-0.173422172665596,0.02051164209842682,0.13504236936569214,-0.10734552890062332,0.9923335909843445
19.369223,-0.06559332460165024,-0.19144269824028015,-0.0036175348795950413,0.045579832047224045,-0.10348591208457947,1.006711721420288
19.427548,-0.0726182758808136,-0.2888757288455963,-0.0036175348795950413,0.04024602472782135,-0.09287197142839432,0.9920898675918579
19.469432,-0.06956394761800766,-0.4208226203918457,0.0037128478288650513,0.02569926716387272,-0.09287197142839432,0.9950142502784729
19.493479,-0.13065047562122345,-0.5579618811607361,-0.020110897719860077,0.07855246961116791,-0.1051744893193245,0.9825856685638428
19.517685,-0.13065047562122345,-0.5604053139686584,-0.011558784171938896,0.11588914692401886,-0.10831042379140854,1.0574005842208862
19.559649,-0.14256234467029572,-0.5518531799316406,-0.011558784171938896,0.14595244824886322,-0.12109540402889252,0.9755184650421143
19.601640,-0.03993698209524155,-0.437315970659256,-0.03874228522181511,0.1607416421175003,-0.08249925822019577,0.9879470467567444
19.642588,-0.07994865626096725,-0.3206407129764557,0.02753659151494503,0.14546756446361542,-0.13773998618125916,0.9867285490036011
19.666211,-0.07994865626096725,-0.3007875978946686,0.015013854950666428,0.10473663359880447,-0.12374889105558395,0.9367707371711731
19.724604,-0.04176957905292511,-0.2845996618270874,0.024176832288503647,0.10473663359880447,-0.06561344116926193,1.0547199249267578
19.765505,-0.04268587753176689,-0.30200931429862976,0.027231158688664436,0.10934310406446457,-0.1413583755493164,0.9370144009590149
19.789151,-0.04268587753176689,-0.2784910202026367,-0.010947918519377708,0.12364742159843445,-0.08394661545753479,0.9864848256111145
19.847529,0.008626801893115044,-0.24672600626945496,0.036394137889146805,0.12364742159843445,-0.10855165123939514,0.9916024804115295
19.888439,-0.014891509898006916,-0.2583324611186981,0.04708428308367729,0.07467333972454071,-0.11458230018615723,0.9916024804115295
19.912076,-0.014891509898006916,-0.28643226623535156,0.009210634976625443,0.09552369266748428,-0.11699455976486206,1.0598376989364624
19.970759,-0.027414247393608093,-0.3359123468399048,0.022344237193465233,0.09552369266748428,-0.11072268337011337,0.9991570711135864
20.011792,-0.04574020206928253,-0.3811163604259491,0.0003530890680849552,0.09794814884662628,-0.11506475508213043,0.9976949095726013
20.035425,-0.03871525451540947,-0.3493513762950897,0.009516067802906036,0.10279706865549088,-0.09745525568723679,0.9796612858772278
20.094353,-0.0194729994982481,-0.34782421588897705,0.009516067802906036,0.10910066217184067,-0.1058981716632843,0.9869722723960876
20.152902,-0.045434772968292236,-0.31331032514572144,0.014097556471824646,0.10764598846435547,-0.10493326187133789,0.9869722723960876
20.158915,-0.05551404878497124,-0.3007875978946686,0.08953941613435745,0.10352440178394318,-0.15896786749362946,0.9370144009590149
20.217361,-0.04421304166316986,-0.26169222593307495,0.08953941613435745,0.09528124332427979,-0.07502125203609467,0.9937956929206848
20.258664,0.05169279873371124,-0.37317511439323425,-0.0341607965528965,0.0800071507692337,-0.07502125203609467,0.9867285490036011
20.282174,-0.047572799026966095,-0.3294982612133026,0.0021856846287846565,0.10619131475687027,-0.11627087742090225,1.0006192922592163
20.323166,-0.0778106302022934,-0.3294982612133026,-0.010642485693097115,0.10158483684062958,-0.12929709255695343,1.0123167037963867
20.382014,-0.08483558148145676,-0.2656628489494324,0.026314862072467804,0.10231217741966248,-0.10324468463659286,0.9367707371711731
20.442223,-0.06284443289041519,-0.23664672672748566,0.024787697941064835,0.0821891650557518,-0.10010875016450882,0.9367707371711731
20.448312,-0.06620419025421143,-0.2241239845752716,0.0009639542549848557,0.10958555340766907,-0.08804745227098465,0.9920898675918579
20.489705,-0.08147582411766052,-0.2241239845752716,0.03578327223658562,0.0804920494556427,-0.12543745338916779,0.9991570711135864
20.548509,-0.14011888206005096,-0.17189501225948334,0.09381546825170517,0.06788485497236252,-0.12543745338916779,1.0001319646835327
20.572147,-0.0729237049818039,-0.22320768237113953,0.056552693247795105,0.04776184633374214,-0.12519624829292297,0.9962327480316162
20.596011,-0.0729237049818039,-0.28215619921684265,0.04891687631607056,0.04267048090696335,-0.1273672729730606,0.9633336067199707
20.654808,-0.023749055340886116,-0.35240569710731506,-0.045461803674697876,0.04267048090696335,-0.11217004060745239,0.9738126397132874
20.696032,-0.06437159329652786,-0.3866141438484192,-0.010031620040535927,0.09043233096599579,-0.10083242505788803,0.9738126397132874
20.702228,-0.08117038756608963,-0.23664672672748566,0.02203880436718464,0.0877654179930687,-0.14232328534126282,0.9959890246391296
20.760968,-0.08727904409170151,-0.2736040949821472,0.02203880436718464,0.06400572508573532,-0.12302520871162415,0.9869722723960876
20.819851,-0.0573466457426548,-0.3203352689743042,4.765624180436134e-05,0.03200286254286766,-0.11675333231687546,0.9945268034934998
20.843541,-0.057652078568935394,-0.3701207935810089,4.765624180436134e-05,0.06739996373653412,-0.1399110108613968,0.9789302349090576
20.884907,-0.05184885859489441,-0.3701207935810089,0.018068181350827217,0.053338102996349335,-0.1198892667889595,0.9747873544692993
20.926144,0.004656178876757622,-0.46022340655326843,0.01440298929810524,0.053338102996349335,-0.10300345718860626,0.9991570711135864
20.967333,0.013208292424678802,-0.4305964410305023,0.04983317479491234,0.0770978033542633,-0.14883637428283691,1.0001319646835327
20.990951,0.013208292424678802,-0.44861698150634766,-0.0188891664147377,0.07321866601705551,-0.0911833867430687,0.9925772547721863
21.049915,0.021760404109954834,-0.48893409967422485,-0.030801037326455116,0.09382656961679459,-0.11482352763414383,0.9923335909843445
21.108661,-0.038409821689128876,-0.3603469431400299,0.08343075960874557,0.14886178076267242,-0.13966980576515198,0.9923335909843445
21.114746,0.00679420679807663,-0.209157794713974,0.01990077644586563,0.12728409469127655,-0.09576668590307236,0.9677202105522156
21.156396,0.03153425082564354,-0.209157794713974,0.011458229273557663,0.07491578906774521,-0.10059119760990143,1.0593502521514893
21.215230,-0.05379676818847656,-0.18384036421775818,0.03974788635969162,0.05261076241731644,-0.10059119760990143,1.0242578983306885
21.238805,-0.08769979327917099,-0.29715585708618164,-0.04821670800447464,0.013576971367001534,-0.13846366107463837,1.0325435400009155
21.262617,-0.08769979327917099,-0.3588532507419586,-0.05585252493619919,0.10376685857772827,-0.09480177611112595,0.9669890999794006
21.321460,-0.06845753639936447,-0.3444979190826416,-0.04424608498811722,0.10376685857772827,-0.11168759316205978,0.9881907105445862
21.362645,-0.09930623322725296,-0.27669188380241394,0.03974788635969162,0.0804920494556427,-0.1333979219198227,0.9881907105445862
21.368868,-0.048604413866996765,-0.32128503918647766,-0.05921228229999542,0.035639550536870956,-0.07815718650817871,0.9862411618232727
21.427658,-0.06937383115291595,-0.3897019624710083,-0.05921228229999542,0.054550331085920334,-0.15872663259506226,1.0006192922592163
21.468822,-0.11305069923400879,-0.43215709924697876,-0.029279885813593864,0.0821891650557518,-0.15872663259506226,1.0162159204483032
21.493781,-0.04493922367691994,-0.3887856602668762,-0.024087531492114067,0.09576613456010818,-0.11892437189817429,1.0549635887145996
21.574652,-0.035470809787511826,-0.3255611062049866,0.008288326673209667,0.09552369266748428,-0.11892437189817429,0.9952579140663147
21.598365,-0.014701392501592636,-0.2950178384780884,-0.05737968906760216,0.0792798176407814,-0.13026198744773865,0.9984260201454163
21.621877,-0.014701392501592636,-0.2944069802761078,0.011342653073370457,0.10716108977794647,-0.1194068193435669,0.9850226640701294
21.680270,-0.0266132652759552,-0.2427888661623001,0.026003418490290642,0.10716108977794647,-0.11530598253011703,0.9937956929206848
21.721373,-0.021420910954475403,-0.17498281598091125,0.10083440691232681,0.06376327574253082,-0.1406347006559372,0.994283139705658
21.744896,-0.021420910954475403,-0.20063915848731995,-0.012175658717751503,0.025941714644432068,-0.08081067353487015,0.9828293919563293
21.803550,-0.008898172527551651,-0.32739371061325073,-0.010037630796432495,0.025941714644432068,-0.09335441887378693,0.9935520887374878
21.844560,-0.0822020024061203,-0.40191924571990967,-0.015229985117912292,0.07564312219619751,-0.13050320744514465,0.9976949095726013
21.868040,-0.0822020024061203,-0.3948943018913269,-0.010953927412629128,0.062066156417131424,-0.11192881315946579,1.0588628053665161
21.926610,-0.06754123419523239,-0.39122912287712097,-0.017673445865511894,0.062066156417131424,-0.12929709255695343,0.9855100512504578
21.967559,-0.047688115388154984,-0.3603804111480713,-0.04302435368299484,0.09625103324651718,-0.10927533358335495,0.9838041663169861
21.991065,-0.06357061117887497,-0.3191470205783844,0.004012269899249077,0.06473305821418762,-0.14232328534126282,1.0110981464385986
22.050242,-0.06479234248399734,-0.33686211705207825,0.004012269899249077,0.0853409618139267,-0.10300345718860626,1.060325026512146
22.108590,-0.04066316410899162,-0.267834335565567,0.007066596299409866,0.10740353912115097,-0.10493326187133789,1.060325026512146
22.114617,-0.02966758981347084,-0.22537919878959656,0.030890341848134995,0.027881281450390816,-0.10348591208457947,1.0542325973510742
22.173181,-0.01653398759663105,-0.16459810733795166,0.030890341848134995,-0.007651905063539743,-0.13581018149852753,0.9818546175956726
22.231582,-0.04280119389295578,-0.3915345370769501,-0.03722113370895386,0.035639550536870956,-0.11747701466083527,0.9818546175956726
22.237592,-0.05807282403111458,-0.3955051898956299,0.01592414267361164,0.06691507250070572,-0.11482352763414383,0.9923335909843445
22.278619,-0.0718172937631607,-0.3955051898956299,-0.027752721682190895,0.09212945401668549,-0.13942857086658478,1.0225520133972168
22.337101,-0.08983781933784485,-0.25714418292045593,-0.010648496448993683,0.12558698654174805,-0.13942857086658478,0.984535276889801
22.360523,-0.043106626719236374,0.01591257005929947,0.06968028098344803,0.0880078673362732,-0.08056945353746414,0.9867285490036011
22.401743,-0.07548248022794724,0.01591257005929947,0.11060825735330582,-0.0,-0.1553494781255722,1.039610743522644
22.460254,-0.17751683294773102,-0.0447150282561779,0.0652058944106102,-0.0009873425588011742,-0.1553494781255722,1.039610743522644
22.483716,-0.13170862197875977,-0.21998253464698792,0.07841399312019348,-0.05998106300830841,-0.11072268337011337,1.0600812435150146
22.524858,-0.10299795120954514,-0.21998253464698792,0.04115121439099312,-0.10515198111534119,-0.18164311349391937,1.0110981464385986
22.583300,-0.26945871114730835,-0.6595000624656677,0.024046991020441055,-0.04294940456748009,-0.18164311349391937,1.0054932832717896
22.607080,-0.2712913155555725,-0.6561403274536133,0.10987355560064316,0.03176041692495346,-0.18670883774757385,1.030593991279602
22.630894,-0.2712913155555725,-0.7535732984542847,0.037791457027196884,0.09406901150941849,-0.09938507527112961,0.9772243499755859
22.689375,-0.3015291392803192,-0.7050095200538635,0.008164494298398495,0.09406901150941849,-0.23833118379116058,0.8868128061294556
22.730338,-0.49608972668647766,-0.5128924250602722,-0.032458044588565826,0.06885464489459991,-0.17971329391002655,0.9226362705230713
22.754078,-0.5739750862121582,-0.6738554239273071,-0.18670150637626648,0.12364742159843445,-0.26341867446899414,0.9209303855895996
22.812592,-0.6930937767028809,-0.643617570400238,-0.18670150637626648,0.14595244824886322,-0.2682431936264038,0.9097203016281128
22.871400,-0.7746443152427673,-0.2859559953212738,-0.7071587443351746,0.19225960969924927,-0.22916460037231445,0.8263760209083557
22.915196,-0.6240660548210144,0.6352288126945496,-0.19830794632434845,0.014546754769980907,-0.2045595645904541,0.8263760209083557
22.921293,-0.677516758441925,0.24091529846191406,-0.12653128802776337,-0.08663931488990784,-0.47425010800361633,0.8675608038902283
22.965059,-0.22853076457977295,-0.09261713176965714,-0.1546310931444168,0.03854890167713165,-0.38354918360710144,0.9184934496879578
23.007919,-0.18179957568645477,0.2931442856788635,-0.9319571256637573,-0.010613933205604553,-0.36376863718032837,0.8027374148368835
23.050110,-0.10238708555698395,0.9205029010772705,-0.9319571256637573,-0.15402545034885406,-0.1476302444934845,0.7176872491836548
23.091917,-0.0843665599822998,1.5554972887039185,-0.08315986394882202,-0.19672800600528717,-0.1476302444934845,0.8461154699325562
23.115919,-0.24960562586784363,0.33346137404441833,0.45012548565864563,-0.05553802102804184,-0.32010674476623535,0.889493465423584
23.140118,0.0011545708402991295,0.33712658286094666,0.5069359540939331,0.086553193628788,-0.3111814260482788,0.7859223484992981
23.199794,0.5429919958114624,0.3655318021774292,0.496856689453125,-0.14662037789821625,-0.19587543606758118,0.590477466583252
23.241626,0.701816976070404,0.08453378826379776,0.3407806158065796,-0.14662037789821625,-0.13773998618125916,0.8017626404762268
23.283231,0.11966242641210556,0.018560340628027916,0.3905661404132843,-0.1283545345067978,-0.22216905653476715,0.8017626404762268
23.289280,-0.1698877066373825,-0.9710413813591003,-0.12408783286809921,-0.28065213561058044,-0.48293423652648926,0.8034685254096985
23.331882,-0.060542818158864975,-0.5706191658973694,-0.1301964819431305,0.2637811601161957,-0.295019268989563,0.772762656211853
23.391022,0.03627932444214821,-0.44630810618400574,0.2088337391614914,0.2637811601161957,-0.3398872911930084,0.9647958278656006
23.433064,-0.3839959502220154,0.1627245396375656,-0.07674577832221985,-0.1611836701631546,-0.2667958438396454,0.9647958278656006
23.439180,-0.4545508921146393,-0.7431886196136475,-0.038872130215168,-0.36013320088386536,-0.46098268032073975,0.9491991996765137
23.481285,-0.3513146638870239,-0.9505773782730103,-0.23343271017074585,-0.22091789543628693,-0.1326742321252823,0.9343336820602417
23.523180,-0.19462774693965912,-0.8106892108917236,-0.23343271017074585,-0.11749377101659775,-0.5181532502174377,1.0574005842208862
23.566114,-0.54343181848526,-0.6335383057594299,0.33833715319633484,-0.14834822714328766,-0.4286584258079529,0.9755184650421143
23.607662,-0.44722050428390503,-0.6885161995887756,0.17737416923046112,-0.20141789317131042,-0.1833316832780838,1.0059806108474731
23.631712,-0.6063509583473206,-0.910871148109436,0.2393769919872284,-0.19672800600528717,-0.39199209213256836,1.0742157697677612
23.673512,-0.5507621765136719,-0.910871148109436,0.34352949261665344,-0.05381016805768013,-0.15317843854427338,1.0291317701339722
23.715615,-0.2205895185470581,-1.0092204809188843,0.5365629196166992,-0.05381016805768013,-0.41249629855155945,0.9979385733604431
23.757322,-0.2804543077945709,-1.090770959854126,0.3615500330924988,-0.03801268711686134,-0.41852694749832153,0.9306783080101013
23.781990,-0.03335931524634361,-0.632927417755127,0.47394922375679016,-0.02369622141122818,-0.2175857573747635,0.9543168544769287
23.805952,-0.03335931524634361,-0.5919994711875916,0.25617578625679016,0.02303236350417137,-0.4448205530643463,0.9184934496879578
23.847905,-0.11399352550506592,-0.596886396408081,0.25617578625679016,-0.035050664097070694,-0.39850518107414246,1.1122324466705322
23.889902,-0.08894804865121841,-0.4182083010673523,0.2690039575099945,-0.08639247715473175,-0.39850518107414246,1.0954172611236572
23.913514,0.43364718556404114,-0.8195467591285706,0.2503725588321686,0.06643018126487732,-0.34036973118782043,0.9048464298248291
23.937368,0.43364718556404114,-0.6674413084983826,0.17462527751922607,-0.05751270428299904,-0.2894710898399353,0.888518750667572
23.996790,0.1324905902147293,-0.6283459663391113,0.24182045459747314,-0.09799375385046005,-0.7256075143814087,0.7591156959533691
24.056078,0.3963843882083893,-0.9230884313583374,0.27816691994667053,-0.03554433211684227,-0.7176470756530762,0.7276787757873535
24.079974,0.41868096590042114,-0.6115471720695496,0.3462783992290497,0.0016971214208751917,-0.36063268780708313,0.7613089084625244
24.104341,0.41868096590042114,-0.7379962801933289,0.5454204678535461,-0.09675957262516022,-0.49716654419898987,0.8349054455757141
24.146422,-0.26396092772483826,-0.9637109637260437,0.5454204678535461,-0.047639280557632446,-0.4011586606502533,1.3676267862319946
24.188344,-0.4597432613372803,-1.299992322921753,0.1929512321949005,0.013819416984915733,-0.4011586606502533,3.025496244430542
24.212343,0.008484953083097935,-1.6115336418151855,0.17584700882434845,0.23517253994941711,0.5676490664482117,0.10210897773504257
24.236394,-0.24319154024124146,-0.04130445420742035,-0.8962215185165405,0.37215450406074524,-0.22409886121749878,0.9350647926330566
24.296151,0.29742422699928284,-0.06665536016225815,0.3090156316757202,-0.05109497904777527,-0.693283200263977,0.9857537150382996
24.338049,-0.13934443891048431,-0.5782549977302551,0.21646954119205475,-0.05109497904777527,-0.20311221480369568,0.8911994099617004
24.379537,0.10652882605791092,-0.4533330500125885,0.01580030843615532,0.13698194921016693,-0.12977953255176544,0.8911994099617004
24.385675,-0.054434165358543396,-0.3174155354499817,-0.03520694002509117,0.13092079758644104,-0.2810281813144684,0.935552179813385
24.427468,-0.015338790602982044,-0.3174155354499817,0.12606148421764374,0.17480351030826569,-0.3314443826675415,0.9187371134757996
24.471013,-0.06298627704381943,-0.03916642442345619,0.16973835229873657,0.03273019939661026,-0.3432644307613373,0.8763338923454285
24.530901,-0.0015675276517868042,-0.12168080359697342,0.10528574883937836,0.08922009915113449,-0.295260488986969,0.920686662197113
24.572605,0.003624826669692993,0.05272122099995613,0.13155294954776764,0.1675301343202591,-0.3106989562511444,0.920686662197113
24.578652,-0.05440737307071686,-0.016306549310684204,0.1391887664794922,-0.09922792762517929,-0.33385664224624634,0.9479807615280151
24.620727,-0.04310636222362518,-0.016306549310684204,0.04206119850277901,-0.002715192036703229,-0.32058921456336975,0.9399387240409851
24.662692,-0.010425074025988579,-0.40298423171043396,-0.0003939381567761302,-0.002715192036703229,-0.2942955791950226,0.9299471974372864
24.704173,-0.01164680439978838,-0.4152015447616577,0.022513508796691895,0.0790373682975769,-0.3012911379337311,0.9299471974372864
24.710262,-0.013479400426149368,-0.28233835101127625,0.04969701170921326,0.086553193628788,-0.28464657068252563,0.9282413125038147
24.752722,-0.018060889095067978,-0.21544861793518066,0.02831672877073288,-0.01826583780348301,-0.34229955077171326,0.9418883323669434
24.795462,-0.02661300264298916,-0.24018865823745728,0.017932020127773285,0.0778251364827156,-0.280063271522522,0.9299471974372864
24.854733,-0.026307569816708565,-0.1980389654636383,0.0576382614672184,0.0846136286854744,-0.280063271522522,0.9404261112213135
24.878798,-0.06448664516210556,-0.08899951726198196,0.020986344665288925,-0.05455067753791809,-0.3333742022514343,0.9465185403823853
24.903043,-0.0574616938829422,-0.45368605852127075,0.020375479012727737,0.09479635208845139,-0.29839643836021423,0.9204429984092712
24.962449,-0.05165848135948181,-0.3312075734138489,0.08573806285858154,0.02400214597582817,-0.3179357349872589,0.8853506445884705
25.004481,-0.07059530168771744,-0.2084236741065979,0.07596421986818314,0.02400214597582817,-0.3381986916065216,1.0381486415863037
25.046265,-0.10174942761659622,-0.3602236807346344,-0.0003939381567761302,-0.03653167560696602,-0.31479978561401367,1.0381486415863037
25.052324,-0.2950882613658905,-0.4164232909679413,-0.09141285717487335,-0.1609368473291397,-0.31214630603790283,0.9267790913581848
25.094408,-0.26332327723503113,-0.4164232909679413,-0.13203540444374084,0.2383243292570114,-0.27210280299186707,0.9102077484130859
25.136151,-0.20101502537727356,-0.11587759107351303,0.0524459071457386,0.2383243292570114,-0.3526722490787506,0.9406698346138
25.177914,-0.2440810203552246,0.04264194518327713,0.14529742300510406,-0.06393042951822281,-0.40453583002090454,0.9211741089820862
25.202475,-0.18116191029548645,-0.3748844563961029,-0.008029753342270851,0.009940282441675663,-0.30708056688308716,0.9011909365653992
25.243645,-0.1484806090593338,-0.3748844563961029,0.027400430291891098,0.09285678714513779,-0.3230014741420746,0.8955858945846558
25.285092,-0.1487860530614853,-0.03463250771164894,0.22104470431804657,0.09285678714513779,-0.39802274107933044,0.9353085160255432
25.326343,-0.04860415309667587,0.06982544809579849,0.11444872617721558,-0.06269625574350357,-0.32830846309661865,0.9284850358963013
25.368727,-0.10052769631147385,-0.5477593541145325,-0.13295170664787292,-0.12020896375179291,-0.36425110697746277,0.8997287750244141
25.409936,-0.08311803638935089,-0.5477593541145325,-0.09263458847999573,0.06958197802305222,-0.39802274107933044,0.9126446843147278
25.468558,-0.051047615706920624,-0.32235002517700195,0.009990771301090717,0.04388270899653435,-0.39802274107933044,0.9201992750167847
25.492037,-0.02508584037423134,-0.3403705656528473,-0.0736977681517601,-0.030360786244273186,-0.38427284359931946,0.9082581996917725
25.533244,-0.023864109069108963,-0.22552788257598877,0.054278500378131866,-0.053069666028022766,-0.35484328866004944,0.9175186157226562
25.591697,0.023172514513134956,-0.1925411820411682,0.09978796541690826,-0.053069666028022766,-0.3888561427593231,0.9299471974372864
25.632849,0.035389818251132965,-0.47964784502983093,-0.006197158247232437,-0.01456330344080925,-0.3302382528781891,0.9150816798210144
25.656587,0.035389818251132965,-0.43230578303337097,0.01487769279628992,0.009455390274524689,-0.3579792082309723,0.9238547682762146
25.714896,-0.03760857880115509,-0.31257617473602295,-0.07614123076200485,0.009455390274524689,-0.3396460711956024,0.9231236577033997
25.756032,-0.0321107879281044,-0.34189772605895996,-0.02574484422802925,-0.020487360656261444,-0.35629063844680786,0.9150816798210144
25.779571,-0.0321107879281044,-0.34189772605895996,0.01671028882265091,-0.01900634355843067,-0.37076419591903687,0.9172748923301697
25.838061,-0.029667329043149948,-0.3690812289714813,-0.01413840614259243,-0.01900634355843067,-0.3396460711956024,0.9165438413619995
25.879189,-0.07395505905151367,-0.27714601159095764,0.04542095586657524,-0.04615826532244682,-0.36208006739616394,0.9940394163131714
25.902671,-0.1335144191980362,-0.3296804130077362,0.007852742448449135,0.0029093509074300528,-0.34953632950782776,0.9211741089820862
25.961070,-0.16772286593914032,-0.28753072023391724,0.007852742448449135,0.010910065844655037,-0.3871675431728363,0.9311656951904297
26.019798,-0.2792057693004608,-0.22949853539466858,0.04633725434541702,-0.03208863362669945,-0.3739001452922821,0.9311656951904297
26.025804,-0.3247152268886566,-0.3247934877872467,0.2949594259262085,-0.1049051508307457,-0.3502599895000458,1.0354679822921753
26.084145,-0.3897723853588104,-0.5917416214942932,0.2949594259262085,-0.11971529573202133,-0.40525949001312256,0.9684512615203857
26.142722,-0.5562331676483154,-1.3501307964324951,0.49593406915664673,0.086553193628788,-0.49041226506233215,0.9684512615203857
26.148743,-0.305167555809021,-1.035535216331482,0.5499956011772156,0.10934310406446457,-0.35580819845199585,0.9460311532020569
26.207346,-0.12496230751276016,-1.0877642631530762,0.5499956011772156,0.053095657378435135,-0.34205833077430725,0.8965607285499573
26.266181,0.0259214099496603,-1.0282047986984253,0.16117991507053375,0.10958555340766907,-0.3739001452922821,0.9606529474258423
26.289602,0.21254074573516846,-0.8140965700149536,0.5377783179283142,0.011152512393891811,-0.3143173158168793,0.9340900778770447
26.330642,0.32402366399765015,-0.8140965700149536,0.5863420963287354,-0.08170259743928909,-0.3302382528781891,0.8492835164070129
26.389305,0.2962292730808258,-0.8519702553749084,0.5863420963287354,0.035881996154785156,-0.3302382528781891,0.8468465209007263
26.412765,0.04516366124153137,-0.7655327916145325,0.7402801513671875,-0.0486266203224659,-0.4086366593837738,0.8210146427154541
26.453781,0.024394245818257332,-0.7655327916145325,0.7027119398117065,0.022789916023612022,-0.4096015989780426,0.9211741089820862
26.512714,0.0008759330958127975,-0.713914692401886,0.8190817832946777,0.022789916023612022,-0.31479978561401367,0.904358983039856
26.554675,-0.029667329043149948,-0.8806809186935425,1.0692310333251953,-0.050354473292827606,-0.43999603390693665,0.9962327480316162
26.578603,0.07540149241685867,-1.1464072465896606,1.276314377784729,-0.03431015461683273,-0.3782421946525574,0.8353927731513977
26.619885,0.1499270647764206,-1.1464072465896606,1.162998914718628,0.11879849433898926,-0.3992288410663605,0.821745753288269
26.678294,0.12121637910604477,-0.9167219400405884,1.0377715826034546,0.13795173168182373,-0.3992288410663605,0.8975354433059692
26.702095,0.1957419514656067,-1.2377315759658813,1.5964077711105347,-0.18734826147556305,-0.4954780042171478,0.7949391603469849
26.743346,0.2360590547323227,-1.2377315759658813,1.8215116262435913,-0.08910766988992691,-0.5087454319000244,0.7357208132743835
26.784547,0.05188318341970444,-1.2591118812561035,1.8981752395629883,-0.08910766988992691,-0.4860701858997345,0.7812920808792114
26.826190,-0.2043747901916504,-0.7221613526344299,1.5118029117584229,0.007758269552141428,-0.5010262131690979,0.8210146427154541
26.849817,-0.13198725879192352,-0.5187432169914246,1.2799795866012573,-0.0009873425588011742,-0.45977655053138733,0.7671576738357544
26.908274,0.026837704703211784,-0.40328967571258545,1.2799795866012573,-0.03085445426404476,-0.49451306462287903,0.7993256449699402
26.966914,-0.08464520424604416,-0.5007227063179016,1.5585341453552246,-0.010367097333073616,-0.493065744638443,0.7993256449699402
26.973188,-0.15642185509204865,-0.5957122445106506,1.438193678855896,0.0809769406914711,-0.6011348962783813,0.8629305362701416
27.015202,-0.1845216602087021,-0.5957122445106506,1.3734419345855713,0.1558927297592163,-0.5446881055831909,0.8015189170837402
27.057077,-0.12038081884384155,-0.5489810705184937,1.192625880241394,0.1558927297592163,-0.5485476851463318,0.7990819811820984
27.098076,-0.2834818363189697,-0.4677359461784363,1.017918348312378,0.20341213047504425,-0.5647098422050476,0.8322247266769409
27.121572,-0.25782549381256104,-0.5596712231636047,1.0234161615371704,0.1520135998725891,-0.4855877161026001,0.8283255696296692
27.180393,-0.12007538974285126,-0.5770808458328247,1.0234161615371704,0.11637403815984726,-0.5487889051437378,0.853670060634613
27.239063,-0.2340017408132553,-0.7695034146308899,0.8703944683074951,0.13770928978919983,-0.5586792230606079,0.853670060634613
27.245104,-0.22117358446121216,-0.8733505010604858,1.0719799995422363,0.05721723660826683,-0.5384162068367004,0.8051744103431702
27.303523,-0.16772286593914032,-0.846472442150116,1.0719799995422363,0.04873162880539894,-0.618985652923584,0.8595187664031982
27.344739,-0.20529107749462128,-0.8134857416152954,0.8933019042015076,0.04824673756957054,-0.618985652923584,0.7849475145339966
27.368215,-0.05318564176559448,-0.5691395998001099,0.6269646286964417,0.04073091223835945,-0.5712229013442993,0.8814514875411987
27.409195,-0.11641019582748413,-0.5691395998001099,0.6623948216438293,0.0797647088766098,-0.5104340314865112,0.8670733571052551
27.468067,0.29928362369537354,-0.46926313638687134,0.32733526825904846,0.10279706865549088,-0.5104340314865112,0.8439221382141113
27.491394,0.4242055416107178,0.13366086781024933,0.29190507531166077,-0.028386101126670837,-0.46966683864593506,0.841728925704956
27.532869,0.4831540584564209,0.08326448500156403,0.26288899779319763,-0.17155078053474426,-0.3666633665561676,0.9258043169975281
27.592614,0.4578031301498413,-0.1626087725162506,0.06099801883101463,-0.1863609254360199,-0.396816611289978,0.9153253436088562
27.634751,0.3622027337551117,-0.45796212553977966,-0.04743055999279022,-0.18685458600521088,-0.396816611289978,0.9111825227737427
27.658851,0.22200915217399597,-0.5996828675270081,-0.09355089068412781,-0.1049051508307457,-0.35604941844940186,0.8838884830474854
27.682930,0.15817373991012573,-0.3290695548057556,0.08543262630701065,0.047034505754709244,-0.37679484486579895,0.9097203016281128
27.725063,0.11388599872589111,-0.3290695548057556,0.13430184125900269,-0.10762033611536026,-0.3787246644496918,0.9085018634796143
27.767185,0.06776567548513412,-0.12901118397712708,0.1031477227807045,-0.10762033611536026,-0.42528125643730164,0.9128884077072144
27.808697,0.030808331444859505,-0.33273473381996155,0.04847528412938118,-0.137981116771698,-0.382101833820343,0.9128884077072144
27.814773,0.04302563518285751,-0.34739550948143005,0.07138273119926453,-0.05479751527309418,-0.367628276348114,0.9077707529067993
27.873675,0.02195078320801258,-0.2792840301990509,0.07138273119926453,-0.12292414903640747,-0.37052297592163086,0.9138631820678711
27.915098,0.01339867152273655,-0.3110490143299103,0.036563411355018616,-0.10120261460542679,-0.37052297592163086,0.9092329144477844
27.938737,-0.009508775547146797,-0.3739681541919708,0.020375479012727737,-0.116506427526474,-0.3888561427593231,0.9097203016281128
27.979967,-0.01745002344250679,-0.3739681541919708,0.012739664874970913,-0.10243679583072662,-0.353154718875885,0.9153253436088562
28.021341,0.0005705012008547783,-0.3764116168022156,0.05214047431945801,-0.10243679583072662,-0.31166383624076843,0.9136195182800293
28.062665,-0.021726079285144806,-0.3058566749095917,0.05855455994606018,-0.10959503054618835,-0.36159762740135193,0.908745527267456
28.086350,-0.004621853586286306,-0.47384461760520935,0.07565878331661224,-0.041468389332294464,-0.32179534435272217,0.9082581996917725
28.145283,0.035389818251132965,-0.4463556706905365,0.07565878331661224,-0.06516461074352264,-0.35653188824653625,0.9138631820678711
28.204033,0.005151989869773388,-0.3696920871734619,0.04939157888293266,-0.07479120045900345,-0.35629063844680786,0.9204429984092712
28.227708,-0.028751030564308167,-0.38893434405326843,-0.07003257423639297,-0.1224304810166359,-0.36425110697746277,0.9211741089820862
28.269150,-0.029667329043149948,-0.38893434405326843,-0.01108407974243164,-0.0543038435280323,-0.36979928612709045,0.921417772769928
28.327897,-0.05318564176559448,-0.37244099378585815,-0.07583579421043396,-0.1377342939376831,-0.3541196286678314,0.9923335909843445
28.369491,-0.13137638568878174,-0.3968755900859833,-0.05109575390815735,-0.08836716413497925,-0.3640098571777344,0.8768212795257568
28.393161,-0.20101502537727356,-0.4857564866542816,-0.0688108429312706,0.12461719661951065,-0.338681161403656,0.8982665538787842
28.451973,-0.18757599592208862,-0.33334559202194214,-0.0688108429312706,0.007758269552141428,-0.3734176754951477,0.9435941576957703
28.510878,-0.3036403954029083,-0.1681065559387207,0.03473081439733505,-0.170810267329216,-0.36304497718811035,0.9435941576957703
28.516919,-0.3457900881767273,-0.5657798647880554,0.3459666669368744,-0.19080395996570587,-0.463877409696579,0.9211741089820862
28.558101,-0.3256315290927887,-0.5657798647880554,0.6908000707626343,-0.17747482657432556,-0.3784834146499634,0.9752748012542725
28.616751,-0.2401103973388672,-0.14672628045082092,1.5545635223388672,-0.32730406522750854,-0.3784834146499634,0.9455438256263733
28.640375,-0.5855547189712524,-1.0685219764709473,1.4604902267456055,-0.07602537423372269,-0.20769549906253815,0.9194682240486145
28.681604,-0.5776134729385376,-0.7863022089004517,1.5395972728729248,-0.05109497904777527,-0.19925259053707123,0.9279976487159729
28.740524,-0.16527940332889557,-0.9054209589958191,1.1462000608444214,-0.05109497904777527,-0.12929709255695343,1.0483838319778442
28.781754,-0.1784130036830902,-0.7554535269737244,0.9241505861282349,-0.15476596355438232,-0.3396460711956024,1.0264511108398438
28.805396,-0.047076985239982605,-0.8107368350028992,0.7851787209510803,-0.13748745620250702,-0.37124666571617126,0.8929052352905273
28.864360,-0.15703272819519043,-0.7765283584594727,0.7851787209510803,-0.1843862235546112,-0.35653188824653625,0.8882750272750854
28.923101,-0.5623418092727661,-0.7823315858840942,0.96355140209198,-0.07108866423368454,-0.45567572116851807,0.8882750272750854
28.929126,-0.42367541790008545,-0.4063439965248108,1.1181002855300903,-0.15575329959392548,-0.41780325770378113,0.8356364965438843
28.971943,-0.17627498507499695,-0.8831243515014648,0.5396109223365784,-0.19376599788665771,-0.44071972370147705,0.7610653042793274
29.030694,-0.0473824217915535,-0.8748776912689209,0.5396109223365784,-0.17130392789840698,-0.41273751854896545,0.8044432997703552
29.089459,-0.21262146532535553,-0.7682816982269287,0.3316113352775574,-0.1880887746810913,-0.4740088880062103,0.8044432997703552
29.095469,-0.13473615050315857,-0.33792710304260254,0.1792004406452179,-0.11156971007585526,-0.634182870388031,0.9399387240409851
29.153908,-0.06143232434988022,-0.35747477412223816,0.1792004406452179,-0.116506427526474,-0.3526722490787506,0.7993256449699402
29.212479,0.2809576392173767,-0.3238771855831146,0.3392471373081207,-0.08046842366456985,-0.46942558884620667,0.7993256449699402
29.218496,0.19787998497486115,-0.19162487983703613,0.36734694242477417,-0.026658250018954277,-0.4214216470718384,0.836611270904541
29.259650,0.14748360216617584,-0.19162487983703613,0.3645980656147003,-0.07725955545902252,-0.3743825852870941,0.822476863861084
29.335467,0.02653227187693119,-0.23713433742523193,0.35299161076545715,-0.11305072158575058,-0.4320355951786041,0.8780397176742554
29.359068,-0.08831039071083069,-0.40848204493522644,0.5289207696914673,-0.229063481092453,-0.45567572116851807,0.8414852023124695
29.400029,-0.13443072140216827,-0.40848204493522644,0.48432764410972595,-0.13304440677165985,-0.4009174406528473,0.819552481174469
29.458606,-0.21170516312122345,-0.675430178642273,0.194472074508667,-0.08762665092945099,-0.4009174406528473,0.9340900778770447
29.482033,-0.12954379618167877,-0.46345990896224976,0.09459561109542847,-0.14785455167293549,-0.39030349254608154,0.8163844347000122
29.522992,0.06868197023868561,-0.46345990896224976,0.1291094869375229,-0.21277232468128204,-0.34905385971069336,0.9336026310920715
29.581564,0.02347794733941555,-0.44879913330078125,0.2354000359773636,-0.19944319128990173,-0.34905385971069336,0.9197119474411011
29.604988,-0.07578765600919724,-0.5978502631187439,0.20699480175971985,-0.1920381337404251,-0.31166383624076843,0.9574849009513855
29.645926,-0.013173967599868774,-0.5978502631187439,0.14499197900295258,-0.09577222913503647,-0.27258527278900146,0.9784428477287292
29.704458,0.045469097793102264,-0.36175084114074707,0.27816063165664673,-0.09873425960540771,-0.27258527278900146,0.9799050092697144
29.728125,0.11022081226110458,-0.3699975311756134,0.2094382643699646,-0.15822166204452515,-0.2552170157432556,0.9886780977249146
29.751705,0.11022081226110458,-0.3718301057815552,0.10375858843326569,-0.07059499621391296,-0.266072154045105,0.9367707371711731
29.810326,0.2546904385089874,-0.29150134325027466,-0.013832973316311836,-0.07059499621391296,-0.26390114426612854,0.9557790756225586
29.851533,0.3322703242301941,-0.08655605465173721,-0.3052156865596771,-0.05751270428299904,-0.27861592173576355,0.9764932990074158
29.875060,0.3322703242301941,-0.218502938747406,-0.33423179388046265,-0.11922161281108856,-0.2462916374206543,0.8768212795257568
29.933609,0.2666023075580597,-0.2634015381336212,-0.4585428535938263,-0.11922161281108856,-0.35677310824394226,0.8319810628890991
29.974586,-0.08403433859348297,-0.3061620891094208,-0.7865775227546692,-0.053069666028022766,-0.35701432824134827,0.8197962045669556
29.998061,-0.08403433859348297,-0.2078128159046173,-0.6949477195739746,-0.08960133790969849,-0.464359849691391,0.744493842124939
30.056703,-0.2654612958431244,0.02095622941851616,-0.5068012475967407,-0.08984818309545517,-0.5828017592430115,0.6457966566085815
30.115052,-0.5751699805259705,0.08234819024801254,-0.2911657989025116,-0.12144314497709274,-0.5630212426185608,0.6457966566085815
30.121058,-0.675046443939209,0.28026852011680603,0.22257186472415924,-0.03455699235200882,-0.6426258087158203,0.9665017127990723
30.179699,-0.9700943827629089,0.393889456987381,0.22257186472415924,-0.287810355424881,-1.0124250650405884,0.9197119474411011
30.238056,0.9959754347801208,-0.4066494405269623,0.0011332249268889427,-0.03184179589152336,-0.3087691366672516,0.9197119474411011
30.244072,0.8536438345909119,-0.5743319988250732,-0.2603170871734619,-0.4238168001174927,-0.23061196506023407,0.8180903196334839
30.302941,0.44130977988243103,-0.7649219036102295,-0.2603170871734619,-0.16463936865329742,-0.4846228361129761,0.8777960538864136
30.361359,0.2617154121398926,-0.6876474618911743,-0.09507805109024048,-0.15797480940818787,-0.18526148796081543,0.8777960538864136
30.367392,0.06959827244281769,-0.46284905076026917,-0.0385730154812336,-0.05109497904777527,-0.3931981921195984,0.9106951355934143
30.408508,0.04669082909822464,-0.46284905076026917,-0.05445551127195358,-0.09009501338005066,-0.3743825852870941,0.9240984320640564
30.467001,0.05554836988449097,-0.3892397880554199,0.030760187655687332,-0.06936081498861313,-0.3743825852870941,0.9194682240486145
30.490481,0.05585380643606186,-0.465597927570343,-0.001615668646991253,-0.1513102501630783,-0.33433911204338074,0.9199556112289429
30.531715,0.057686395943164825,-0.465597927570343,-0.003448264207690954,-0.0698544830083847,-0.32782599329948425,0.9279976487159729
30.590195,0.02958660013973713,-0.38343656063079834,0.003576685907319188,-0.09774692356586456,-0.32782599329948425,0.9245858788490295
30.613629,-0.009814208373427391,-0.2591254711151123,0.01762658730149269,-0.12366466224193573,-0.3435056507587433,0.9253169298171997
30.654871,-0.010425074025988579,-0.2685938775539398,0.02984389290213585,-0.14217732846736908,-0.34905385971069336,0.9260479807853699
30.730836,-0.009203342720866203,-0.31135445833206177,0.029538460075855255,-0.11576592177152634,-0.34905385971069336,0.9145942330360413
30.754568,0.011260641738772392,-0.31135445833206177,0.04206119850277901,-0.12489883601665497,-0.30804547667503357,0.9111825227737427
30.778244,0.011260641738772392,-0.23285827040672302,0.045726388692855835,-0.1513102501630783,-0.32758477330207825,0.9248295426368713
30.836654,0.017674727365374565,-0.3257097899913788,-0.06575652211904526,-0.1513102501630783,-0.3150410056114197,0.9323841333389282
30.877655,-0.0058435844257473946,-0.3107436001300812,-0.07461406290531158,-0.1515570878982544,-0.3312031626701355,0.9309219717979431
30.901328,-0.0058435844257473946,-0.3214337229728699,0.009074472822248936,-0.11132287234067917,-0.32758477330207825,0.9260479807853699
30.959740,-0.030889058485627174,-0.2688993215560913,-0.07583579421043396,-0.11132287234067917,-0.34061095118522644,0.9201992750167847
31.000674,-0.016839157789945602,-0.24507558345794678,-0.0028373990207910538,-0.10539881885051727,-0.324448823928833,0.9209303855895996
31.024338,-0.020198918879032135,-0.26737216114997864,-0.01871989667415619,-0.11379123479127884,-0.3184181749820709,0.9145942330360413
31.100118,-0.0003457972779870033,-0.3611399829387665,-0.023606818169355392,-0.11379123479127884,-0.3254137337207794,0.921417772769928
31.141251,0.01736929453909397,-0.38404741883277893,-0.04743055999279022,-0.15081658959388733,-0.3220365643501282,0.923611044883728
31.164815,0.01339867152273655,-0.3907669484615326,-0.03093719854950905,-0.14711403846740723,-0.3143173158168793,0.9306783080101013
31.223253,-0.014090265147387981,-0.41336894035339355,-0.03093719854950905,-0.116506427526474,-0.3039446175098419,0.9491991996765137
31.281820,-0.15642185509204865,-0.4268079996109009,-0.11615290492773056,-0.13847480714321136,-0.3256549835205078,0.9491991996765137
31.287827,-0.23858323693275452,-0.11618302017450333,-0.2713126540184021,-0.17426596581935883,-0.2532871961593628,0.9370144009590149
31.346238,-0.5070585012435913,-0.10396571457386017,-0.2713126540184021,-0.14267100393772125,-0.3119050860404968,0.880476713180542
31.404875,-1.4432095289230347,0.042336512356996536,-0.5776616334915161,-0.1764874905347824,-0.3654572367668152,0.880476713180542
31.410882,-1.798733115196228,0.022788826376199722,-1.0559691190719604,-0.24881033599376678,-0.5495125651359558,1.0093923807144165
31.469363,-1.981381893157959,-0.07281158864498138,-1.0559691190719604,-0.17796850204467773,-0.4728027582168579,0.9462748765945435
31.527970,-1.0678328275680542,-0.35839107632637024,-0.7694733142852783,-0.2559685707092285,-0.3102165162563324,0.9343336820602417
31.551450,-0.7260537147521973,-0.3137979209423065,-0.17051991820335388,-0.15229760110378265,-0.24436183273792267,0.9701571464538574
31.592442,-0.5208029747009277,-0.3137979209423065,-0.28536257147789,-0.11700009554624557,-0.13966980576515198,0.850745677947998
31.651373,0.2155950665473938,-0.24599188566207886,-0.0892748311161995,-0.10243679583072662,-0.13966980576515198,0.9375017285346985
31.674889,0.6496148109436035,-0.03127275034785271,0.03198191896080971,-0.18512673676013947,-0.3181769549846649,0.9289723634719849
31.715806,0.9681810736656189,-0.03127275034785271,0.1339964121580124,-0.1495824009180069,-0.37800097465515137,0.9587033987045288
31.774480,1.3438631296157837,0.2967619001865387,0.4064423143863678,-0.1631583720445633,-0.37800097465515137,1.0059806108474731
31.797956,1.3450849056243896,-0.0367705374956131,0.5884801149368286,-0.21227866411209106,-0.48221057653427124,0.9825856685638428
31.821460,1.3450849056243896,-0.2701210379600525,0.3306950330734253,-0.11305072158575058,-0.396816611289978,0.8563507199287415
31.880028,0.7620140314102173,-0.4961411654949188,0.1281931847333908,-0.11305072158575058,-0.5145348310470581,0.9177623391151428
31.921000,0.02195078320801258,-0.5724993944168091,0.24578474462032318,-0.03974054008722305,-0.6539634466171265,0.7703257203102112
31.944491,0.02195078320801258,-0.09785705804824829,0.8844443559646606,-0.11231022328138351,-0.6981077194213867,0.7722753286361694
31.986885,-0.1338198482990265,0.0035465704277157784,1.00142502784729,-0.18956977128982544,-0.8833692669868469,0.8892498016357422
32.028974,-0.24377559125423431,-0.22705507278442383,0.7720451354980469,-0.18956977128982544,-0.7613089680671692,0.693804919719696
32.070717,0.35884296894073486,-0.2386614978313446,-0.2823082506656647,0.11152512580156326,-0.7478002905845642,0.6250824332237244
32.095218,0.44405868649482727,0.256750226020813,-0.3827955722808838,-0.02443673089146614,-0.5005437135696411,0.6124101877212524
32.137089,0.3728928864002228,0.23353734612464905,-0.3528631627559662,-0.19722168147563934,-0.5405872464179993,0.7179309129714966
32.197010,-0.08861582726240158,0.03592243045568466,-0.23282817006111145,-0.11724693328142166,-0.5483064651489258,0.6340991854667664
32.238993,-0.14725887775421143,0.18497353792190552,-0.036129552870988846,-0.11403807252645493,-0.5483064651489258,0.6594436764717102
32.262757,-0.34212490916252136,0.041420213878154755,0.04908614605665207,-0.10416464507579803,-0.7099277973175049,0.6287378668785095
32.286478,-0.34212490916252136,-0.1882651150226593,0.2399815320968628,-0.1532849371433258,-0.5085041522979736,1.1734004020690918
32.328142,-0.4252025783061981,-0.5208812355995178,0.2399815320968628,-0.41443705558776855,-0.7584142088890076,1.122955083847046
32.370216,0.23697535693645477,-0.9497086405754089,0.6184125542640686,0.14934667944908142,-0.7584142088890076,0.8792582154273987
32.393859,0.531717836856842,-0.260652631521225,0.6535372734069824,-0.5329181551933289,-0.5258724689483643,1.1185685396194458
32.435459,0.2149842083454132,-0.6262555122375488,-0.3708837032318115,-0.14489252865314484,-0.13170933723449707,0.8392919301986694
32.477517,0.12365984171628952,-0.7056679725646973,-0.3708837032318115,0.001212229602970183,-0.47473257780075073,0.9067959785461426
32.519731,-0.049520447850227356,-0.2551548480987549,0.18317106366157532,0.0033942428417503834,-0.47473257780075073,0.902653157711029
32.543692,0.06837654113769531,-0.40451139211654663,0.048780713230371475,-0.16365203261375427,-0.38282549381256104,0.9067959785461426
32.568132,0.07143086940050125,-0.3648051619529724,0.027094997465610504,-0.19697484374046326,-0.3741413652896881,0.9099640250205994
32.627668,0.05035601556301117,-0.38282570242881775,0.010296203196048737,-0.09996844083070755,-0.33313295245170593,0.904358983039856
32.669502,0.05341034382581711,-0.23560717701911926,0.05458393320441246,-0.09996844083070755,-0.37148788571357727,0.906552255153656
32.711271,0.043941929936409,-0.2936393618583679,-0.07675209641456604,-0.18932293355464935,-0.32806721329689026,0.906552255153656
32.717347,0.027448570355772972,-0.34220314025878906,0.009685338474810123,-0.15402545034885406,-0.34905385971069336,0.9153253436088562
32.759633,0.01798016019165516,-0.23713433742523193,0.015793990343809128,-0.17550013959407806,-0.3396460711956024,0.9126446843147278
32.822761,-0.025696704164147377,-0.2942502200603485,0.007241877261549234,-0.15797480940818787,-0.3304794728755951,0.9106951355934143
32.864894,-0.02600213699042797,-0.29760998487472534,0.007241877261549234,-0.17130392789840698,-0.3292733430862427,0.908745527267456
32.923702,-0.01164680439978838,-0.32204461097717285,0.007547310087829828,-0.17130392789840698,-0.3328917324542999,0.9085018634796143
32.965151,0.013093238696455956,-0.3593073785305023,0.008769040927290916,-0.15476596355438232,-0.33433911204338074,0.9106951355934143
32.988801,0.01645299792289734,-0.36388885974884033,-0.011694945394992828,-0.16636721789836884,-0.3307207226753235,0.9160564541816711
33.047547,0.013093238696455956,-0.3754953145980835,-0.011694945394992828,-0.15032291412353516,-0.3196243345737457,0.9245858788490295
33.106532,-0.003094690851867199,-0.37916049361228943,-0.018109031021595,-0.16834191977977753,-0.31407612562179565,0.9245858788490295
33.112569,-0.024780407547950745,-0.3507552742958069,-0.02024705708026886,-0.1493355631828308,-0.32058921456336975,0.9935520887374878
33.153712,-0.04127376526594162,-0.3507552742958069,-0.05964786559343338,-0.1710571050643921,-0.2909184396266937,0.9404261112213135
33.212651,-0.2144540548324585,-0.289974182844162,-0.14242011308670044,-0.05924055725336075,-0.2909184396266937,0.9548042416572571
33.236230,-0.6768790483474731,0.053026653826236725,-0.32842856645584106,-0.15649381279945374,-0.25714680552482605,0.9716193079948425
33.259833,-0.6768790483474731,0.23842427134513855,-0.7877992391586304,-0.250538170337677,-0.309251606464386,0.921417772769928
33.318717,-1.9074671268463135,0.347158282995224,-1.0049618482589722,-0.250538170337677,-0.3890973925590515,0.8617120385169983
33.359930,-3.058948040008545,0.23292645812034607,-1.0767384767532349,-0.17550013959407806,-0.5208067297935486,0.7530232667922974
33.383645,-3.388204574584961,-0.17757496237754822,-0.6109537482261658,-0.529462456703186,-0.9364389181137085,1.1258794069290161
33.442600,-3.129503011703491,-0.4112309217453003,-0.6109537482261658,-0.48404473066329956,-0.6802570819854736,1.0632493495941162
33.467405,-2.2645177841186523,-0.43810898065567017,0.31175822019577026,-0.48404473066329956,-0.34784775972366333,0.7505862712860107
33.508278,-0.7459068298339844,-0.8837352395057678,-0.3925694227218628,-0.029620278626680374,-0.32782599329948425,0.8314936757087708
33.531841,-0.7459068298339844,-0.6442760229110718,-0.10149213671684265,-0.2964496314525604,-0.4086366593837738,0.7759307622909546
33.590527,0.5234711766242981,-0.6332804560661316,0.14224308729171753,-0.2964496314525604,-0.32854968309402466,0.7932332158088684
33.631544,1.4553459882736206,-0.7117766737937927,0.23845437169075012,-0.22486726939678192,-0.43179434537887573,0.7676450610160828
33.655079,1.4553459882736206,-0.5089693665504456,0.7088205814361572,-0.1532849371433258,-0.5229777693748474,0.853670060634613
33.696289,1.9214361906051636,-0.3965701460838318,0.7088205814361572,-0.23202551901340485,-0.5574730038642883,0.8244264125823975
33.754971,2.214346170425415,-0.5175215005874634,0.7897602319717407,-0.23177866637706757,-0.5692931413650513,0.8244264125823975
33.761107,2.141653060913086,-0.5666961669921875,0.9919566512107849,-0.1671077311038971,-0.6028234958648682,0.8339306116104126
33.819615,1.973970651626587,-0.514467179775238,0.9919566512107849,-0.16834191977977753,-0.5543370842933655,0.7610653042793274
33.878110,1.212221622467041,-0.6314478516578674,0.5102893710136414,-0.250538170337677,-0.5492714047431946,0.7610653042793274
33.884118,0.5708132386207581,-1.2487272024154663,-0.06606195122003555,-0.0678798034787178,-0.6112663745880127,0.764477014541626
33.942730,0.09281115233898163,-1.1467126607894897,0.4968503713607788,0.05115608870983124,-0.8896411061286926,1.0242578983306885
34.001818,-0.024169541895389557,-0.20964539051055908,1.0212781429290771,-0.17722800374031067,-0.8896411061286926,0.8370987176895142
34.025815,0.7565162181854248,-1.1448800563812256,-0.06758911162614822,0.07152154296636581,-0.5097103714942932,0.7464434504508972
34.050532,0.6639701724052429,0.004157435614615679,0.4660016894340515,0.19177472591400146,-0.47425010800361633,0.5373515486717224
34.092301,0.48468121886253357,0.004157435614615679,0.5344185829162598,-0.32532939314842224,-1.1043320894241333,0.8112668395042419
34.134619,-0.23033656179904938,0.22193089127540588,0.10742377489805222,-0.3650699257850647,-0.39657536149024963,0.6214269995689392
34.194078,0.3276888430118561,-0.5114128589630127,0.8059481382369995,0.10061505436897278,-0.5034384727478027,0.708670437335968
34.217806,0.10258499532938004,-0.16077616810798645,0.9067409038543701,-0.3411268889904022,-0.6455205082893372,0.3933267295360565
34.259434,0.2003234475851059,-0.3513661324977875,-0.5333738923072815,-0.49194344878196716,-0.47449132800102234,1.3286352157592773
34.318978,-2.5775864124298096,-0.3648051619529724,1.6119848489761353,-0.23350651562213898,-0.30708056688308716,0.7722753286361694
34.361592,0.13648802042007446,-1.2444511651992798,-1.5064822435379028,-0.9130451083183289,-0.30708056688308716,0.8553759455680847
34.385833,-0.14450998604297638,-0.5043879151344299,0.17248092591762543,0.755219042301178,-0.4308294355869293,0.9201992750167847
34.410257,-0.025696704164147377,0.4424532651901245,0.32214292883872986,-0.5578485727310181,-0.37655362486839294,0.9979385733604431
34.452112,-0.014701129868626595,0.4424532651901245,-0.10607362538576126,-0.17130392789840698,-0.20745427906513214,0.8841321468353271
34.494388,0.016147565096616745,-0.5825786590576172,-0.06056416407227516,0.02569926716387272,-0.38427284359931946,0.9102077484130859
34.536583,-0.026307569816708565,-0.22247356176376343,0.006936444900929928,-0.15106341242790222,-0.38427284359931946,0.8997287750244141
34.560891,-0.038830310106277466,-0.3339564800262451,0.034119948744773865,-0.13946214318275452,-0.37028175592422485,0.9019220471382141
34.584646,-0.038830310106277466,-0.23010939359664917,0.025567833334207535,-0.1303292214870453,-0.36328622698783875,0.903627872467041
34.626209,-0.0373031422495842,-0.26187437772750854,0.025567833334207535,-0.1671077311038971,-0.3640098571777344,0.9053338170051575
34.668159,-0.02905646339058876,-0.31349247694015503,0.023429807275533676,-0.21598118543624878,-0.3640098571777344,0.9033842086791992
34.691903,-0.014701129868626595,-0.3644997179508209,0.001438657520338893,-0.1261330097913742,-0.34977754950523376,0.9002161026000977
34.715739,-0.014701129868626595,-0.3208228647708893,0.017321154475212097,-0.16167734563350677,-0.3449530303478241,0.9014346599578857
34.774613,-0.02447497472167015,-0.29302850365638733,0.02923302724957466,-0.16167734563350677,-0.36376863718032837,0.8997287750244141
34.815831,-0.02050434984266758,-0.3538095951080322,0.0322873517870903,-0.1651330441236496,-0.35629063844680786,0.8997287750244141
34.822059,-0.011952236294746399,-0.39259952306747437,0.0322873517870903,-0.13329125940799713,-0.34953632950782776,0.9011909365653992
34.880989,-0.018060889095067978,-0.3855745792388916,0.0322873517870903,-0.17500647902488708,-0.35677310824394226,0.9077707529067993
34.922392,-0.0015675276517868042,-0.40420597791671753,0.0524459071457386,-0.15451911091804504,-0.35677310824394226,0.9058212041854858
34.946028,0.0005705012008547783,-0.4362764060497284,0.018848318606615067,-0.12489883601665497,-0.34977754950523376,0.908745527267456
34.987316,0.012482373043894768,-0.31776854395866394,0.01976461336016655,-0.1688355803489685,-0.3666633665561676,0.9136195182800293
35.046379,0.026226842775940895,-0.4451339542865753,-0.07125430554151535,-0.1688355803489685,-0.3379574716091156,0.9221488833427429
35.087612,0.007900884374976158,-0.3950429856777191,0.05855455994606018,-0.0757785439491272,-0.3114226162433624,0.9231236577033997
35.111218,-0.036386847496032715,-0.41275808215141296,-0.05048488825559616,-0.1456330269575119,-0.3167296051979065,0.9297034740447998
35.170104,-0.08128544688224792,-0.4668196737766266,-0.05048488825559616,-0.08836716413497925,-0.3396460711956024,0.906552255153656
35.228848,-0.2034584879875183,-0.27622970938682556,0.07565878331661224,-0.07059499621391296,-0.3587028980255127,0.906552255153656
35.234889,-0.19093574583530426,-0.32784780859947205,-0.09049656242132187,-0.15254443883895874,-0.32058921456336975,0.9221488833427429
35.278792,-0.33174020051956177,-0.2792840301990509,0.03320365026593208,-0.11551907658576965,-0.3321680426597595,0.8841321468353271
35.319794,-0.3607562780380249,-0.2792840301990509,0.3905598223209381,0.014061863534152508,-0.5126050114631653,0.8553759455680847
35.378416,-0.2346126139163971,-0.18185102939605713,0.3114527761936188,0.02448703721165657,-0.5126050114631653,0.8419725894927979
35.401846,0.11724575608968735,-0.5147725939750671,-0.1292865127325058,-0.15056973695755005,-0.40550073981285095,0.8963170051574707
35.442790,0.20643208920955658,-0.5147725939750671,-0.07064343988895416,-0.07800006866455078,-0.3365101218223572,0.9284850358963013
35.501449,0.15878459811210632,-0.3742735683917999,0.024346105754375458,-0.1088545173406601,-0.3365101218223572,0.9404261112213135
35.524894,-0.11488303542137146,-0.16383051872253418,0.005103848874568939,-0.041221555322408676,-0.32034799456596375,0.9216614961624146
35.565907,-0.23705607652664185,-0.16383051872253418,0.08909782022237778,-0.11156971007585526,-0.23567770421504974,0.9231236577033997
35.624420,-0.6362565159797668,-0.029745586216449738,0.3960576057434082,-0.16612039506435394,-0.23567770421504974,1.030106544494629
35.647905,-1.1918385028839111,-0.34220314025878906,0.7091259956359863,-0.07923424243927002,-0.53214430809021,0.9967200756072998
35.671378,-1.1918385028839111,-0.6882583498954773,1.6687953472137451,-0.15575329959392548,-0.6175382733345032,1.0547199249267578
35.730037,-1.9865741729736328,-1.2969855070114136,2.170926570892334,-0.15575329959392548,-1.063323736190796,1.02303946018219
35.770928,-1.3570775985717773,-1.767046332359314,0.6761392951011658,0.1585596352815628,-0.4708729386329651,1.0098797082901
35.794654,-1.3570775985717773,-1.874558687210083,0.7390584349632263,-0.4057977795600891,-0.24146711826324463,0.9835605025291443
35.853249,-1.0714980363845825,-2.114628791809082,0.05702739581465721,-0.4057977795600891,0.11095620691776276,0.7881156206130981
35.894230,-0.9856714606285095,-2.6683781147003174,1.3410661220550537,-0.6314055919647217,0.06191210821270943,0.772519052028656
35.917721,-0.9856714606285095,-2.3754682540893555,2.1944448947906494,-0.5696967244148254,-0.13870488107204437,0.8112668395042419
35.976340,-1.37845778465271,-2.0352160930633545,2.358767509460449,-0.3260698914527893,-0.2038358747959137,1.2004506587982178
36.034749,-1.0721088647842407,-1.1390769481658936,1.67673659324646,-0.5529118776321411,-0.37655362486839294,1.2289632558822632
36.058260,-0.42367541790008545,-2.1628870964050293,1.3209075927734375,-0.8278867602348328,-0.20287097990512848,0.8183339834213257
36.116861,0.4785725474357605,-2.1824347972869873,1.3209075927734375,-0.8816969394683838,-0.2737913727760315,0.8258886337280273
36.175345,0.9620723724365234,-1.8009493350982666,2.64251446723938,-0.9764817953109741,-0.36111515760421753,0.8258886337280273
36.181407,1.230242133140564,-1.9964263439178467,3.2393298149108887,-0.8770070672035217,-0.5521660447120667,0.6258134841918945
36.239983,1.5298715829849243,-1.8583706617355347,3.2393298149108887,-0.6296777129173279,-0.9627325534820557,0.756434977054596
36.298814,1.5701886415481567,-0.875793993473053,1.885957956314087,-0.49441179633140564,-0.9644211530685425,0.6638302206993103
36.322760,1.6660945415496826,-1.1885570287704468,0.48554936051368713,-0.5529118776321411,-0.5618151426315308,0.45668789744377136
36.347058,1.6660945415496826,-1.0960109233856201,-0.4221963882446289,-0.3124939203262329,-0.8037647008895874,1.0449721813201904
36.406547,0.2556067407131195,-0.2951665222644806,0.12513886392116547,-0.2752217650413513,-0.8315056562423706,0.5990068912506104
36.468012,1.3175959587097168,1.2506279945373535,1.2534070014953613,-0.22215208411216736,-1.1972041130065918,0.5076205134391785
36.526648,0.41626429557800293,-0.7578969597816467,-0.7193823456764221,-0.13921530544757843,-1.327224850654602,0.5076205134391785
36.532757,0.6807689666748047,-0.3394542634487152,0.37437188625335693,0.1532258242368698,-1.0942007303237915,0.07286535203456879
36.574152,0.8502840399742126,-0.3394542634487152,0.5496901869773865,-0.20857611298561096,-0.10179732739925385,1.7114830017089844
36.632954,-1.0223233699798584,-1.377619743347168,-2.091996669769287,-0.021474702283740044,-0.10179732739925385,2.6860268115997314
36.656527,-1.505517840385437,-1.5052906274795532,0.3413851857185364,-0.4364054203033447,-2.014718770980835,1.5952396392822266
36.680305,-1.505517840385437,-1.8201916217803955,-2.4087302684783936,0.22523225843906403,0.3535059988498688,0.8926615715026855
36.739162,0.06868197023868561,-1.0392004251480103,0.5002101063728333,0.22523225843906403,-0.8821631073951721,0.8631742596626282
36.780345,0.12365984171628952,-0.5773863196372986,-0.21877826750278473,-0.614867627620697,-0.3459179401397705,0.8631742596626282
36.786578,-0.010425074025988579,-0.16993916034698486,0.03900687023997307,-0.4230763018131256,-0.36183884739875793,0.908745527267456
36.845414,-0.03058362752199173,-0.3107436001300812,0.03900687023997307,-0.15970265865325928,-0.36111515760421753,0.905577540397644
36.886707,-0.04005203768610954,-0.5459267497062683,0.0729098916053772,-0.04714560881257057,-0.36111515760421753,0.907283365726471
36.910401,-0.02447497472167015,-0.4164232909679413,0.01365596242249012,-0.09774692356586456,-0.3526722490787506,0.8997287750244141
36.951675,-0.037914007902145386,-0.4164232909679413,0.03534168004989624,-0.11625958979129791,-0.3466416001319885,0.9031404852867126
36.992896,-0.05288020521402359,-0.3504498302936554,0.030149325728416443,-0.11625958979129791,-0.3538784086704254,0.9031404852867126
37.034285,-0.0779256820678711,-0.280200332403183,0.06344147771596909,-0.13255074620246887,-0.37679484486579895,0.9050900936126709
37.059255,-0.06509751081466675,-0.2243061661720276,0.098260797560215,-0.1532849371433258,-0.37607115507125854,0.8989976644515991
37.100420,-0.07853654772043228,-0.2243061661720276,0.04542095586657524,-0.15377859771251678,-0.3582204580307007,0.8963170051574707
37.158891,-0.052574776113033295,-0.33151301741600037,0.04511552304029465,-0.17179761826992035,-0.3582204580307007,0.8992413878440857
37.182353,-0.040968336164951324,-0.2646232545375824,0.06680124253034592,-0.166860893368721,-0.3801720142364502,0.8972918391227722
37.223561,-0.047076985239982605,-0.2646232545375824,0.021902643144130707,-0.08688614517450333,-0.3541196286678314,0.891686737537384
37.282051,-0.033332519233226776,-0.2126997411251068,0.050307877361774445,-0.11798743903636932,-0.3591853678226471,0.892417848110199
37.323092,-0.019588053226470947,-0.23682889342308044,0.026178698986768723,-0.1513102501630783,-0.37510624527931213,0.8963170051574707
37.346761,-0.019588053226470947,-0.22247356176376343,0.014266828075051308,-0.1940128207206726,-0.3726940155029297,0.9024094343185425
37.405284,0.015231266617774963,-0.2594309151172638,-8.850556332617998e-05,-0.1940128207206726,-0.3514661490917206,0.894611120223999
37.446275,0.008206317201256752,-0.2951665222644806,-0.010167782194912434,-0.19277863204479218,-0.3603914976119995,0.8992413878440857
37.469977,0.008206317201256752,-0.3513661324977875,-0.050790321081876755,-0.12465199828147888,-0.35556697845458984,0.9024094343185425
37.528449,0.0387495756149292,-0.38771259784698486,-0.07430863380432129,-0.12465199828147888,-0.3297557830810547,0.9082581996917725
37.569393,-0.011341371573507786,-0.4249753952026367,-0.08347161114215851,-0.21993055939674377,-0.34833019971847534,0.911669909954071
37.593093,-0.04066290333867073,-0.41275808215141296,-0.0892748311161995,-0.10786718130111694,-0.34905385971069336,0.9070396423339844
37.651575,-0.10694178193807602,-0.33212387561798096,-0.0892748311161995,-0.08120892941951752,-0.3519485592842102,0.9060648679733276
37.710202,-0.15520012378692627,-0.2078128159046173,-0.006197158247232437,-0.21104447543621063,-0.36425110697746277,0.9060648679733276
37.716168,-0.15061864256858826,-0.3305967152118683,-0.09080199152231216,-0.20882296562194824,-0.3890973925590515,0.8919304609298706
37.775131,-0.1029711589217186,-0.4500208795070648,-0.09813237935304642,-0.12884820997714996,-0.3796895742416382,0.8892498016357422
37.834120,-0.062043190002441406,-0.42864057421684265,-0.032158929854631424,-0.07750639319419861,-0.3796895742416382,0.8921741247177124
37.863162,-0.018060889095067978,-0.4017625153064728,-0.0385730154812336,-0.11107604205608368,-0.3661809265613556,0.9046027064323425
37.940481,-0.03058362752199173,-0.35289329290390015,-0.006197158247232437,-0.11107604205608368,-0.31528225541114807,0.9089892506599426
37.981828,-0.06143232434988022,-0.3565584719181061,-0.0639239251613617,-0.11798743903636932,-0.33361542224884033,0.9089892506599426
37.987921,-0.1377904713153839,-0.30646753311157227,-0.15677544474601746,-0.12070263177156448,-0.3591853678226471,0.9092329144477844
38.047006,-0.17810757458209991,-0.32815325260162354,-0.45457223057746887,-0.30755719542503357,-0.5118813514709473,0.9141069054603577
38.105861,-0.23858323693275452,-0.23255285620689392,-0.7432060837745667,-0.233012855052948,-0.5118813514709473,0.889493465423584
38.129470,-0.21811924874782562,-0.3449520468711853,-0.7148008346557617,-0.026164578273892403,-0.4156322181224823,0.9143506288528442
38.170889,-0.25629833340644836,-0.1681065559387207,-0.9017256498336792,-0.0933038741350174,-0.4568818509578705,0.9333589673042297
38.229747,-0.5091965794563293,-0.16474679112434387,-1.0773494243621826,-0.0933038741350174,-0.4711141586303711,0.8602498769760132
38.271069,-0.6090729832649231,0.5447731614112854,-0.9344069361686707,-0.12094946205615997,-0.43493029475212097,0.953342080116272
38.294951,-0.49881184101104736,1.2949156761169434,-0.622865617275238,-0.4154243767261505,-0.4081542193889618,1.0154846906661987
38.353721,-0.2785949110984802,1.5291825532913208,-0.622865617275238,-0.359145849943161,-0.2822343111038208,0.984535276889801
38.394930,0.09372744709253311,0.6385409832000732,-2.1692709922790527,0.0033942428417503834,-0.2822343111038208,0.9297034740447998
38.418723,0.4672715663909912,1.5304042100906372,-2.4670677185058594,0.09819059818983078,-0.26510724425315857,1.1168626546859741
38.459947,0.492622435092926,1.5304042100906372,-2.440800666809082,0.022305024787783623,-0.11361739784479141,1.1207618713378906
38.501338,0.7012329697608948,1.0392686128616333,-2.5098283290863037,0.022305024787783623,-0.09335441887378693,1.0734845399856567
38.542491,1.1850382089614868,0.6629756093025208,-1.9166781902313232,0.0792798176407814,-0.1399110108613968,1.1792490482330322
38.566101,1.1850382089614868,0.38594821095466614,-1.955162763595581,0.22256535291671753,-0.1555907130241394,0.9360396265983582
38.607567,1.1636579036712646,0.36426249146461487,-1.955162763595581,0.14570999145507812,-0.14618289470672607,1.3629964590072632
38.666355,0.20368319749832153,1.0123904943466187,-1.2966500520706177,0.0875229761004448,-0.5692931413650513,1.3629964590072632
38.672389,0.9617669582366943,0.569513201713562,-1.7221176624298096,-0.05257599055767059,-0.41032522916793823,0.9070396423339844
38.713804,1.3872345685958862,0.569513201713562,-2.078252077102661,0.04994386062026024,-0.3299970328807831,0.9862411618232727
38.772512,0.3377681076526642,0.2857663333415985,-1.7709869146347046,0.10764598846435547,-0.3299970328807831,0.974299967288971
38.796108,0.27912506461143494,0.23445361852645874,-1.726088285446167,0.09164455533027649,-0.4730440080165863,0.7113510966300964
38.837491,0.5671480298042297,0.5078158378601074,-1.0523039102554321,-0.005183548666536808,-0.2699317932128906,0.7281661629676819
38.896572,0.05921356379985809,1.1284549236297607,-0.5822430849075317,-0.005183548666536808,-1.0382362604141235,0.7030653953552246
38.937793,-0.03302709013223648,-0.3944321274757385,-1.2984826564788818,-0.42406365275382996,-0.8713079690933228,0.7030653953552246
38.943995,0.569896936416626,0.2454492151737213,-0.5785779356956482,0.10691864788532257,-0.40550073981285095,0.6959982514381409
39.002747,0.2198711335659027,0.8642556667327881,-0.5785779356956482,-0.20339258015155792,-0.7371863722801208,0.6501832008361816
39.043920,0.4037415683269501,0.5841739773750305,-0.9438753128051758,-0.3218736946582794,-0.7371863722801208,0.6475025415420532
39.067650,0.6783254742622375,0.3065357506275177,0.03534168004989624,-0.20512041449546814,-0.6435906887054443,0.6623679995536804
39.108823,0.6774091720581055,0.3065357506275177,0.09642820060253143,-0.22560778260231018,-0.4301057755947113,0.8268634080886841
39.167863,0.48071059584617615,0.30317598581314087,0.10895094275474548,-0.27843061089515686,-0.463877409696579,0.3838225305080414
39.209124,0.5411862730979919,-0.29180675745010376,0.2240990400314331,-0.4907092750072479,-0.512363851070404,0.5551413893699646
39.232760,0.5411862730979919,-1.5950877666473389,-1.9493595361709595,-1.3543871641159058,-0.18791496753692627,0.5929144620895386
39.274094,-2.7892510890960693,-2.9258577823638916,-1.9493595361709595,0.28099483251571655,-0.9989164471626282,0.6684604287147522
39.332842,0.6306779980659485,-1.6256310939788818,-0.14852876961231232,-0.2270888090133667,1.6017026901245117,0.6684604287147522
39.338879,-0.6399217247962952,0.3773961067199707,-0.20381207764148712,-1.097184419631958,-0.25859418511390686,0.9270228147506714
39.397784,0.2052103579044342,-0.43413835763931274,-0.2099207192659378,0.28584375977516174,-0.5133286714553833,0.8836447596549988
39.456515,-0.04432809352874756,-0.1073254719376564,0.001438657520338893,-0.3322407901287079,-0.5133286714553833,0.889493465423584
39.480092,0.00881718099117279,-0.2291930913925171,0.03809057176113129,-0.1377342939376831,-0.3734176754951477,0.9177623391151428
39.521459,0.002708529122173786,-0.31196531653404236,0.03992316871881485,-0.11946845054626465,-0.37631240487098694,0.9111825227737427
39.580218,-0.03241622447967529,-0.2444647252559662,0.03686884418129921,-0.11946845054626465,-0.36232128739356995,0.9075270891189575
39.621384,-0.05593453347682953,-0.2695101797580719,0.03839600458741188,-0.15081658959388733,-0.39054471254348755,0.9126446843147278
39.645160,-0.0369977131485939,-0.19070857763290405,0.020933933556079865,-0.09626590460538864,-0.3524310290813446,0.9021657705307007
39.703909,-0.06460403650999069,-0.1469629853963852,0.020933933556079865,-0.11922161281108856,-0.3464003801345825,0.9070396423339844
39.762886,-0.047209691256284714,-0.1861935555934906,0.017232609912753105,-0.1648862212896347,-0.3753474950790405,0.9070396423339844
39.768977,-0.02063705399632454,-0.2109335958957672,0.006542467977851629,-0.1416836678981781,-0.37197035551071167,0.9021657705307007
39.810231,-0.020331621170043945,-0.2109335958957672,-0.008118297904729843,-0.1436583399772644,-0.3591853678226471,0.8982665538787842
39.869235,-0.02827286906540394,-0.22498351335525513,0.0022664114367216825,-0.11774060875177383,-0.34736528992652893,0.8982665538787842
39.910416,-0.031938061118125916,-0.2720201015472412,0.0016555462498217821,-0.11206338554620743,-0.35484328866004944,0.9011909365653992
39.934084,-0.031938061118125916,-0.23353561758995056,0.023341262713074684,-0.21474701166152954,-0.3162471652030945,0.8914430737495422
39.993006,0.018458323553204536,-0.34013158082962036,0.012345687486231327,-0.13551276922225952,-0.3321680426597595,0.9004598259925842
40.051790,0.02639957144856453,-0.37098029255867004,0.07221048325300217,-0.12909504771232605,-0.3596678078174591,0.9004598259925842
40.057934,0.02578870579600334,-0.3477674126625061,-0.015143248252570629,-0.10589249432086945,-0.3789658844470978,0.8994851112365723
40.099405,0.016931159421801567,-0.3477674126625061,-0.01098484918475151,-0.11379123479127884,-0.32806721329689026,0.895342230796814
40.158145,-0.13292555510997772,-0.26920393109321594,0.05162883922457695,-0.38358259201049805,-0.32806721329689026,0.8997287750244141
40.181712,-0.11459958553314209,-0.1794067621231079,0.03849523514509201,-0.022462045773863792,-0.36835193634033203,0.9033842086791992
40.223115,-0.12834405899047852,-0.1503906548023224,-0.02625647932291031,-0.20117104053497314,-0.39126840233802795,0.8865691423416138
40.281849,-0.07000643014907837,-0.3809922933578491,-0.02106412500143051,-0.20117104053497314,-0.39729905128479004,0.8985102772712708
40.323001,0.08209902048110962,-0.4280289113521576,0.016198655590415,-0.14859506487846375,-0.3736589252948761,0.9033842086791992
40.346765,0.08484791219234467,-0.46559712290763855,-0.02014782838523388,-0.05775953829288483,-0.3582204580307007,0.903627872467041
40.405578,0.0029919669032096863,-0.39076611399650574,-0.02014782838523388,-0.09182285517454147,-0.36111515760421753,0.9004598259925842
40.466767,-0.0040329834446311,-0.3131862282752991,0.018947547301650047,-0.15624696016311646,-0.35629063844680786,0.9089892506599426
40.525395,0.02101249247789383,-0.39870738983154297,0.013144328258931637,-0.13131655752658844,-0.3369925916194916,0.9089892506599426
40.531444,0.006046293303370476,-0.3473947048187256,0.026583364233374596,-0.12094946205615997,-0.34857141971588135,0.9119135737419128
40.590113,-0.028162160888314247,-0.30860474705696106,0.026583364233374596,-0.12662670016288757,-0.3521898090839386,0.9070396423339844
40.648533,-0.04251749441027641,-0.2713419795036316,0.04460388794541359,-0.12341781705617905,-0.3507424592971802,0.9070396423339844
40.654730,-0.03365994989871979,-0.31868404150009155,0.024139903485774994,-0.14267100393772125,-0.3461591601371765,0.905577540397644
40.695850,-0.01899918168783188,-0.31868404150009155,0.03085942007601261,-0.12909504771232605,-0.35629063844680786,0.9075270891189575
40.754419,-0.01991548016667366,-0.3113536536693573,0.031164852902293205,-0.13329125940799713,-0.35629063844680786,0.9080144762992859
40.777899,-0.01258509699255228,-0.31410253047943115,0.025667065754532814,-0.1357596069574356,-0.35460206866264343,0.9038715958595276
40.819082,-0.019304614514112473,-0.31410253047943115,0.0391061007976532,-0.12070263177156448,-0.3437469005584717,0.9131320714950562
40.877481,-0.018693748861551285,-0.2960820198059082,0.04796364903450012,-0.15797480940818787,-0.3437469005584717,0.9033842086791992
40.900923,-0.024191536009311676,-0.2594301104545593,0.15455962717533112,-0.12687352299690247,-0.34302324056625366,0.9085018634796143
40.942062,-0.024802401661872864,-0.2805049419403076,0.09530571103096008,-0.14834822714328766,-0.338922381401062,0.9131320714950562
41.000628,-0.02907845936715603,-0.2545431852340698,0.10599584877490997,-0.14834822714328766,-0.35460206866264343,0.9075270891189575
41.041599,-0.04404465854167938,-0.3028015196323395,0.07636888325214386,-0.11700009554624557,-0.34085217118263245,0.9067959785461426
41.065285,-0.04404465854167938,-0.2820321023464203,0.03635720908641815,-0.13748745620250702,-0.33602768182754517,0.9070396423339844
41.123708,-0.04007403180003166,-0.2924168109893799,0.027805093675851822,-0.13748745620250702,-0.3377162516117096,0.9048464298248291
41.164606,-0.03060562163591385,-0.34036973118782043,0.011311732232570648,-0.13724061846733093,-0.34278202056884766,0.9058212041854858
41.188259,-0.03060562163591385,-0.33426108956336975,0.00795197393745184,-0.14908874034881592,-0.3435056507587433,0.9053338170051575
41.246672,-0.027856728062033653,-0.32387638092041016,0.007035675924271345,-0.14908874034881592,-0.3519485592842102,0.9067959785461426
41.287661,-0.009225337766110897,-0.3263198435306549,-0.012817444279789925,-0.15994949638843536,-0.3459179401397705,0.9082581996917725
41.311340,-0.009225337766110897,-0.33456653356552124,-0.018315231427550316,-0.12563934922218323,-0.3432644307613373,0.9080144762992859
41.352303,-0.010447068139910698,-0.3205166161060333,-0.018315231427550316,-0.14094315469264984,-0.3246900737285614,0.9063085317611694
41.410739,-0.003727551084011793,-0.3217383623123169,0.07728518545627594,-0.14118999242782593,-0.339163601398468,0.9063085317611694
41.434391,-0.010752500966191292,-0.3327339291572571,-0.030532537028193474,-0.11749377101659775,-0.28344041109085083,0.9138631820678711
41.493426,-0.007087309844791889,-0.3018852472305298,-0.030532537028193474,-0.18932293355464935,-0.34833019971847534,0.907283365726471
41.535160,-0.026634996756911278,-0.38954439759254456,-0.04122268036007881,-0.15180392563343048,-0.34833019971847534,0.9226362705230713
41.559447,-0.04160119593143463,-0.33975887298583984,-0.0470258966088295,-0.1204557940363884,-0.3186594247817993,0.9019220471382141
41.583013,-0.04160119593143463,-0.3477001190185547,-0.07115507125854492,-0.0757785439491272,-0.353637158870697,0.9245858788490295
41.641702,-0.01594485528767109,-0.43932992219924927,-0.049163926392793655,-0.09750007838010788,-0.31311121582984924,0.9523673057556152
41.700883,-0.2459356188774109,-0.17910131812095642,-0.06046493351459503,-0.09848742187023163,-0.25811171531677246,0.9523673057556152
41.706860,-0.5782463550567627,0.022484201937913895,-0.31305772066116333,-0.13353808224201202,-0.2653484642505646,0.9377454519271851
41.748117,-0.8900930285453796,0.022484201937913895,-0.5818383693695068,-0.08268994092941284,-0.4308294355869293,0.9080144762992859
41.807068,-1.9450572729110718,0.34257760643959045,-0.07818002253770828,-0.06121524050831795,-0.4308294355869293,0.9301908612251282
41.830566,-2.5632529258728027,0.24300655722618103,0.40990129113197327,-0.2964496314525604,-0.6399723291397095,1.2633243799209595
41.871765,-2.8778486251831055,0.7106238603591919,-0.5931394100189209,-0.6318992376327515,-0.06802570074796677,1.427088737487793
41.931541,-1.9453626871109009,-0.6445806622505188,-1.5124917030334473,-0.3630952537059784,0.4127473831176758,1.2647866010665894
41.973913,-1.053499460220337,-0.12076369673013687,-0.7391362190246582,-0.6652220487594604,0.4127473831176758,1.0559383630752563
41.998615,0.035367824137210846,-0.7200224995613098,-0.09100819379091263,-0.5376080274581909,0.6851606369018555,1.0781148672103882
42.022703,0.5326120853424072,-0.3064667284488678,1.1954740285873413,-0.4235699772834778,-0.07309144735336304,1.0147536993026733
42.081253,1.1538621187210083,-0.30432870984077454,1.084601879119873,-0.7637094855308533,-0.7617913484573364,1.4280635118484497
42.139732,0.5903388857841492,-2.2456586360931396,-0.1685880869626999,-0.9002096056938171,-0.7617913484573364,1.514819622039795
42.163192,2.2366206645965576,0.34746453166007996,2.008535623550415,0.3428185284137726,-0.9750350713729858,0.45425093173980713
42.204373,2.9336178302764893,0.34746453166007996,1.4893001317977905,-0.3729686737060547,-1.5433632135391235,0.6160656809806824
42.262919,1.2097562551498413,-0.6748185157775879,-0.3448227047920227,-0.7153297662734985,-1.5433632135391235,0.22566328942775726
42.286316,1.7677817344665527,-0.19437295198440552,0.5244385600090027,0.3246350884437561,-0.9965041875839233,-0.11521166563034058
42.327417,1.3349837064743042,-0.19437295198440552,0.5998803973197937,-0.17722800374031067,-0.942710816860199,0.17497433722019196
42.385788,-0.14483742415905,-0.4775089919567108,-0.15148386359214783,-0.11872794479131699,-0.942710816860199,0.3255789875984192
42.409225,-0.5211304426193237,-0.31868404150009155,-0.23150721192359924,0.007273377384990454,-0.6431082487106323,0.5124944448471069
42.450391,-0.5214358568191528,-0.31868404150009155,0.028110526502132416,-0.19500015676021576,-0.5567494034767151,0.6470151543617249
42.491988,-0.7920491695404053,-0.25820836424827576,0.3265182077884674,-0.19500015676021576,-0.6440731287002563,0.8492835164070129
42.532941,-0.4478265941143036,-0.37366190552711487,-0.024423884227871895,-0.20363940298557281,-0.5946218371391296,0.7154939770698547
42.556649,-0.4478265941143036,0.13213451206684113,0.07239826023578644,-0.1337849199771881,-0.7540721893310547,0.7798299193382263
42.615079,-0.3772716522216797,0.5435522198677063,0.31491175293922424,-0.1337849199771881,-0.7986989617347717,0.6026622653007507
42.656046,0.5848410725593567,0.0032419469207525253,-0.6331510543823242,-0.32730406522750854,-0.5007849931716919,0.2861000895500183
42.679725,0.0732414722442627,-1.5730957984924316,-5.190511226654053,-2.563141345977783,1.0840688943862915,-0.7346551418304443
42.738581,2.8694770336151123,-3.3898091316223145,-5.190511226654053,2.1529197692871094,0.47563064098358154,0.795670211315155
42.782102,0.09156742691993713,-0.11160071939229965,0.9218063950538635,-0.9648805260658264,-1.0083242654800415,0.8139474987983704
42.840571,-0.07428248226642609,-1.0847090482711792,-0.38361266255378723,-0.34458258748054504,-0.05065743625164032,0.8139474987983704
42.846597,0.056137245148420334,-0.15313956141471863,0.09011334925889969,-0.024189893156290054,-0.2836816608905792,0.8836447596549988
42.905168,-0.0330490842461586,0.006601706147193909,0.09011334925889969,-0.23029766976833344,-0.3444705903530121,0.9004598259925842
42.963564,-0.02144264429807663,-0.4478820264339447,-0.06626815348863602,-0.21622803807258606,-0.4105664789676666,0.9004598259925842
42.969664,0.007268023677170277,0.07501861453056335,0.06873306632041931,-0.34828510880470276,-0.39633414149284363,0.8909556865692139
43.034780,-0.002811253070831299,-0.3028015196323395,0.07056566327810287,-0.10663300007581711,-0.3529134690761566,0.8899809122085571
43.075746,-0.015028557740151882,-0.27806147933006287,0.01344976108521223,-0.22980399429798126,-0.3661809265613556,0.8870565295219421
43.116768,-0.019304614514112473,-0.27806147933006287,0.012533462606370449,-0.15822166204452515,-0.3685931861400604,0.8911994099617004
43.157951,-0.033354513347148895,-0.22155645489692688,0.021696440875530243,-0.15822166204452515,-0.3951280415058136,0.8875439167022705
43.198929,-0.001284089870750904,-0.33853715658187866,0.018031250685453415,-0.1920381337404251,-0.3661809265613556,0.8890060782432556
43.222511,-0.001284089870750904,-0.3632771968841553,0.011006300337612629,-0.16167734563350677,-0.3673870265483856,0.8933926820755005
43.281173,-0.007087309844791889,-0.33426108956336975,0.016504086554050446,-0.16167734563350677,-0.4293821156024933,0.8936363458633423
43.322237,0.006962590850889683,-0.3675532639026642,0.0030650519765913486,-0.14908874034881592,-0.36111515760421753,0.8899809122085571
43.345768,0.006962590850889683,-0.33884257078170776,0.02688879705965519,-0.15303809940814972,-0.3647335469722748,0.892417848110199
43.404343,0.018874462693929672,-0.23713353276252747,0.06567874550819397,-0.15303809940814972,-0.3854789733886719,0.9448127150535583
43.445376,0.06407849490642548,-0.26553875207901,0.018642116338014603,-0.1784621775150299,-0.34833019971847534,0.9448127150535583
43.451390,-0.07489335536956787,-0.3464784026145935,-0.040000949054956436,-0.2576964199542999,-0.41394364833831787,0.9002161026000977
43.509998,-0.16774486005306244,-0.44452226161956787,-0.040000949054956436,-0.053316500037908554,-0.3584616780281067,0.9007035493850708
43.568489,-0.043433792889118195,-0.29822003841400146,0.07789605110883713,-0.2177090346813202,-0.3787246644496918,0.9007035493850708
43.574519,-0.03549254313111305,-0.5474531054496765,-0.057716041803359985,-0.12168997526168823,-0.36135637760162354,0.9002161026000977
43.633183,0.06468935310840607,-0.5581432580947876,-0.057716041803359985,-0.14513936638832092,-0.34977754950523376,0.9131320714950562
43.691560,0.022234221920371056,-0.5184369683265686,-0.029921671375632286,-0.13650010526180267,-0.37052297592163086,0.9131320714950562
43.697653,-0.006781877018511295,-0.4472711682319641,-0.05588344484567642,-0.05998106300830841,-0.3673870265483856,0.8968044519424438
43.738984,-0.027245862409472466,-0.4472711682319641,0.00031615825719200075,-0.1029304638504982,-0.34857141971588135,0.906552255153656
43.781679,-0.027856728062033653,-0.1348136067390442,0.051934272050857544,-0.2058609277009964,-0.36232128739356995,0.9028968811035156
43.823723,-0.02449696883559227,-0.3354828357696533,-0.06290838867425919,-0.233012855052948,-0.36232128739356995,0.9004598259925842
43.847740,0.013682108372449875,-0.49644580483436584,-0.0369466207921505,-0.13329125940799713,-0.36425110697746277,0.906552255153656
43.871795,0.013682108372449875,-0.4845339357852936,-0.025340182706713676,-0.07651904970407486,-0.35556697845458984,0.906552255153656
43.913465,-0.0018949550576508045,-0.43505385518074036,-0.025340182706713676,-0.08392411470413208,-0.34857141971588135,0.9058212041854858
43.955644,-0.023275237530469894,-0.2618735730648041,0.011311732232570648,-0.1300823837518692,-0.34857141971588135,0.905577540397644
43.979555,-0.010447068139910698,-0.35350334644317627,-0.010679416358470917,-0.1574811488389969,-0.35653188824653625,0.9048464298248291
44.003279,-0.010447068139910698,-0.37854883074760437,-0.005792494397610426,-0.11625958979129791,-0.3514661490917206,0.9038715958595276
44.044831,-0.006781877018511295,-0.3018852472305298,-0.005792494397610426,-0.12292414903640747,-0.35532572865486145,0.9063085317611694
44.104239,-0.014112260192632675,-0.322654664516449,0.01222803071141243,-0.1145317405462265,-0.3519485592842102,0.9085018634796143
44.128164,-0.020831778645515442,-0.346172958612442,0.006424810737371445,-0.1397089660167694,-0.35604941844940186,0.9058212041854858
44.152445,-0.020831778645515442,-0.34861642122268677,0.015587789006531239,-0.12588618695735931,-0.34760650992393494,0.9077707529067993
44.194175,-0.014112260192632675,-0.3382317125797272,0.015587789006531239,-0.10762033611536026,-0.34760650992393494,0.906552255153656
44.235775,-0.026329565793275833,-0.3064667284488678,0.030248554423451424,-0.11872794479131699,-0.34760650992393494,0.9104514122009277
44.259818,-0.023886103183031082,-0.3458675444126129,0.012533462606370449,-0.13230390846729279,-0.3466416001319885,0.9060648679733276
44.284057,-0.023886103183031082,-0.32937416434288025,0.055904895067214966,-0.1086076870560646,-0.3451942503452301,0.9143506288528442
44.325349,-0.04282292723655701,-0.21941843628883362,0.055904895067214966,-0.15303809940814972,-0.3741413652896881,0.9080144762992859
44.384311,-0.03152192011475563,-0.3880172371864319,-0.012817444279789925,-0.14143681526184082,-0.3594265878200531,0.9080144762992859
